,correct,questions,responses,rt,time_elapsed,trial_type,worker_id,assignment_id,pid
1,"[False, True, True, True, True, True]","[""How many flights are there per round?"",""True or false: The hidden values will change each time I start a new round."",""How much does it cost to observe each hidden value?"",""How many hidden values am I allowed to observe in each round?"",""Which statement is TRUE?"",""True of false: The duration of the delay is proportional to how much more money I could have earned by planning and deciding better.""]","[""2"",""True"",""$0.10"",""As many or as few as I wish"",""My earnings for each round are equal to the <i>sum</i> of the values of all locations I visit (minus the cost of making observations), and I will actually be paid 5% the earnings from one of the 8 rounds."",""True""]",52533,450598,survey-multi-choice,A13XXMDHOULEZ7,3VSOLARPKB9O74GLUPJ34Q1KJA3939,0
3,"[False, True, True, True, False, False]","[""How many flights are there per round?"",""True or false: The hidden values will change each time I start a new round."",""How much does it cost to observe each hidden value?"",""How many hidden values am I allowed to observe in each round?"",""Which statement is TRUE?"",""True of false: The duration of the delay is proportional to how much more money I could have earned by planning and deciding better.""]","[""2"",""True"",""$0.10"",""As many or as few as I wish"",""My earnings for each round are equal to the <i>sum</i> of the values of all locations I visit (minus the cost of making observations), but these earnings aren't real money."",""False""]",43664,549059,survey-multi-choice,A13XXMDHOULEZ7,3VSOLARPKB9O74GLUPJ34Q1KJA3939,0
5,"[True, True, True, True, True, True]","[""How many flights are there per round?"",""True or false: The hidden values will change each time I start a new round."",""How much does it cost to observe each hidden value?"",""How many hidden values am I allowed to observe in each round?"",""Which statement is TRUE?"",""True of false: The duration of the delay is proportional to how much more money I could have earned by planning and deciding better.""]","[""3"",""True"",""$0.10"",""As many or as few as I wish"",""My earnings for each round are equal to the <i>sum</i> of the values of all locations I visit (minus the cost of making observations), and I will actually be paid 5% the earnings from one of the 8 rounds."",""True""]",25513,599034,survey-multi-choice,A13XXMDHOULEZ7,3VSOLARPKB9O74GLUPJ34Q1KJA3939,0
16,"[False, True, False, True, True, False]","[""How many flights are there per round?"",""True or false: The hidden values will change each time I start a new round."",""How much does it cost to observe each hidden value?"",""How many hidden values am I allowed to observe in each round?"",""Which statement is TRUE?"",""True of false: The duration of the delay is proportional to how much more money I could have earned by planning and deciding better.""]","[""1"",""True"",""$0.00"",""As many or as few as I wish"",""My earnings for each round are equal to the <i>sum</i> of the values of all locations I visit (minus the cost of making observations), and I will actually be paid 5% the earnings from one of the 8 rounds."",""False""]",46569,363794,survey-multi-choice,A154X03NKVZZL1,33FOTY3KEMLUVZ99J5FBINNVRBQC1Z,1
18,"[False, True, True, True, True, True]","[""How many flights are there per round?"",""True or false: The hidden values will change each time I start a new round."",""How much does it cost to observe each hidden value?"",""How many hidden values am I allowed to observe in each round?"",""Which statement is TRUE?"",""True of false: The duration of the delay is proportional to how much more money I could have earned by planning and deciding better.""]","[""1"",""True"",""$0.10"",""As many or as few as I wish"",""My earnings for each round are equal to the <i>sum</i> of the values of all locations I visit (minus the cost of making observations), and I will actually be paid 5% the earnings from one of the 8 rounds."",""True""]",28547,469425,survey-multi-choice,A154X03NKVZZL1,33FOTY3KEMLUVZ99J5FBINNVRBQC1Z,1
20,"[False, True, True, False, True, True]","[""How many flights are there per round?"",""True or false: The hidden values will change each time I start a new round."",""How much does it cost to observe each hidden value?"",""How many hidden values am I allowed to observe in each round?"",""Which statement is TRUE?"",""True of false: The duration of the delay is proportional to how much more money I could have earned by planning and deciding better.""]","[""1"",""True"",""$0.10"",""At most 15"",""My earnings for each round are equal to the <i>sum</i> of the values of all locations I visit (minus the cost of making observations), and I will actually be paid 5% the earnings from one of the 8 rounds."",""True""]",19297,499406,survey-multi-choice,A154X03NKVZZL1,33FOTY3KEMLUVZ99J5FBINNVRBQC1Z,1
22,"[False, True, True, True, False, True]","[""How many flights are there per round?"",""True or false: The hidden values will change each time I start a new round."",""How much does it cost to observe each hidden value?"",""How many hidden values am I allowed to observe in each round?"",""Which statement is TRUE?"",""True of false: The duration of the delay is proportional to how much more money I could have earned by planning and deciding better.""]","[""1"",""True"",""$0.10"",""As many or as few as I wish"",""My earnings for each round are equal to the value of one of the locations I visit (minus the cost of making observations), and I will actually be paid the earnings from one of the 8 rounds."",""True""]",21136,530844,survey-multi-choice,A154X03NKVZZL1,33FOTY3KEMLUVZ99J5FBINNVRBQC1Z,1
24,"[False, True, True, True, False, True]","[""How many flights are there per round?"",""True or false: The hidden values will change each time I start a new round."",""How much does it cost to observe each hidden value?"",""How many hidden values am I allowed to observe in each round?"",""Which statement is TRUE?"",""True of false: The duration of the delay is proportional to how much more money I could have earned by planning and deciding better.""]","[""1"",""True"",""$0.10"",""As many or as few as I wish"",""My earnings for each round are equal to the value of one of the locations I visit (minus the cost of making observations), and I will actually be paid the earnings from one of the 8 rounds."",""True""]",20254,578749,survey-multi-choice,A154X03NKVZZL1,33FOTY3KEMLUVZ99J5FBINNVRBQC1Z,1
26,"[False, True, True, True, True, True]","[""How many flights are there per round?"",""True or false: The hidden values will change each time I start a new round."",""How much does it cost to observe each hidden value?"",""How many hidden values am I allowed to observe in each round?"",""Which statement is TRUE?"",""True of false: The duration of the delay is proportional to how much more money I could have earned by planning and deciding better.""]","[""1"",""True"",""$0.10"",""As many or as few as I wish"",""My earnings for each round are equal to the <i>sum</i> of the values of all locations I visit (minus the cost of making observations), and I will actually be paid 5% the earnings from one of the 8 rounds."",""True""]",21202,607160,survey-multi-choice,A154X03NKVZZL1,33FOTY3KEMLUVZ99J5FBINNVRBQC1Z,1
28,"[False, True, True, True, True, True]","[""How many flights are there per round?"",""True or false: The hidden values will change each time I start a new round."",""How much does it cost to observe each hidden value?"",""How many hidden values am I allowed to observe in each round?"",""Which statement is TRUE?"",""True of false: The duration of the delay is proportional to how much more money I could have earned by planning and deciding better.""]","[""1"",""True"",""$0.10"",""As many or as few as I wish"",""My earnings for each round are equal to the <i>sum</i> of the values of all locations I visit (minus the cost of making observations), and I will actually be paid 5% the earnings from one of the 8 rounds."",""True""]",42880,724892,survey-multi-choice,A154X03NKVZZL1,33FOTY3KEMLUVZ99J5FBINNVRBQC1Z,1
30,"[False, True, True, True, True, True]","[""How many flights are there per round?"",""True or false: The hidden values will change each time I start a new round."",""How much does it cost to observe each hidden value?"",""How many hidden values am I allowed to observe in each round?"",""Which statement is TRUE?"",""True of false: The duration of the delay is proportional to how much more money I could have earned by planning and deciding better.""]","[""4"",""True"",""$0.10"",""As many or as few as I wish"",""My earnings for each round are equal to the <i>sum</i> of the values of all locations I visit (minus the cost of making observations), and I will actually be paid 5% the earnings from one of the 8 rounds."",""True""]",29905,793311,survey-multi-choice,A154X03NKVZZL1,33FOTY3KEMLUVZ99J5FBINNVRBQC1Z,1
32,"[False, True, True, True, True, False]","[""How many flights are there per round?"",""True or false: The hidden values will change each time I start a new round."",""How much does it cost to observe each hidden value?"",""How many hidden values am I allowed to observe in each round?"",""Which statement is TRUE?"",""True of false: The duration of the delay is proportional to how much more money I could have earned by planning and deciding better.""]","[""1"",""True"",""$0.10"",""As many or as few as I wish"",""My earnings for each round are equal to the <i>sum</i> of the values of all locations I visit (minus the cost of making observations), and I will actually be paid 5% the earnings from one of the 8 rounds."",""False""]",23029,827916,survey-multi-choice,A154X03NKVZZL1,33FOTY3KEMLUVZ99J5FBINNVRBQC1Z,1
34,"[False, True, True, True, True, True]","[""How many flights are there per round?"",""True or false: The hidden values will change each time I start a new round."",""How much does it cost to observe each hidden value?"",""How many hidden values am I allowed to observe in each round?"",""Which statement is TRUE?"",""True of false: The duration of the delay is proportional to how much more money I could have earned by planning and deciding better.""]","[""2"",""True"",""$0.10"",""As many or as few as I wish"",""My earnings for each round are equal to the <i>sum</i> of the values of all locations I visit (minus the cost of making observations), and I will actually be paid 5% the earnings from one of the 8 rounds."",""True""]",30954,871013,survey-multi-choice,A154X03NKVZZL1,33FOTY3KEMLUVZ99J5FBINNVRBQC1Z,1
36,"[True, True, True, True, False, True]","[""How many flights are there per round?"",""True or false: The hidden values will change each time I start a new round."",""How much does it cost to observe each hidden value?"",""How many hidden values am I allowed to observe in each round?"",""Which statement is TRUE?"",""True of false: The duration of the delay is proportional to how much more money I could have earned by planning and deciding better.""]","[""3"",""True"",""$0.10"",""As many or as few as I wish"",""My earnings for each round are equal to the value of one of the locations I visit (minus the cost of making observations), but these earnings aren't real money."",""True""]",25026,927176,survey-multi-choice,A154X03NKVZZL1,33FOTY3KEMLUVZ99J5FBINNVRBQC1Z,1
38,"[False, True, True, True, True, True]","[""How many flights are there per round?"",""True or false: The hidden values will change each time I start a new round."",""How much does it cost to observe each hidden value?"",""How many hidden values am I allowed to observe in each round?"",""Which statement is TRUE?"",""True of false: The duration of the delay is proportional to how much more money I could have earned by planning and deciding better.""]","[""1"",""True"",""$0.10"",""As many or as few as I wish"",""My earnings for each round are equal to the <i>sum</i> of the values of all locations I visit (minus the cost of making observations), and I will actually be paid 5% the earnings from one of the 8 rounds."",""True""]",64335,1072552,survey-multi-choice,A154X03NKVZZL1,33FOTY3KEMLUVZ99J5FBINNVRBQC1Z,1
40,"[False, True, True, True, True, True]","[""How many flights are there per round?"",""True or false: The hidden values will change each time I start a new round."",""How much does it cost to observe each hidden value?"",""How many hidden values am I allowed to observe in each round?"",""Which statement is TRUE?"",""True of false: The duration of the delay is proportional to how much more money I could have earned by planning and deciding better.""]","[""2"",""True"",""$0.10"",""As many or as few as I wish"",""My earnings for each round are equal to the <i>sum</i> of the values of all locations I visit (minus the cost of making observations), and I will actually be paid 5% the earnings from one of the 8 rounds."",""True""]",18135,1098503,survey-multi-choice,A154X03NKVZZL1,33FOTY3KEMLUVZ99J5FBINNVRBQC1Z,1
42,"[True, True, True, True, True, True]","[""How many flights are there per round?"",""True or false: The hidden values will change each time I start a new round."",""How much does it cost to observe each hidden value?"",""How many hidden values am I allowed to observe in each round?"",""Which statement is TRUE?"",""True of false: The duration of the delay is proportional to how much more money I could have earned by planning and deciding better.""]","[""3"",""True"",""$0.10"",""As many or as few as I wish"",""My earnings for each round are equal to the <i>sum</i> of the values of all locations I visit (minus the cost of making observations), and I will actually be paid 5% the earnings from one of the 8 rounds."",""True""]",18845,1123468,survey-multi-choice,A154X03NKVZZL1,33FOTY3KEMLUVZ99J5FBINNVRBQC1Z,1
53,"[False, True, True, True, True, True]","[""How many flights are there per round?"",""True or false: The hidden values will change each time I start a new round."",""How much does it cost to observe each hidden value?"",""How many hidden values am I allowed to observe in each round?"",""Which statement is TRUE?"",""True of false: The duration of the delay is proportional to how much more money I could have earned by planning and deciding better.""]","[""4"",""True"",""$0.10"",""As many or as few as I wish"",""My earnings for each round are equal to the <i>sum</i> of the values of all locations I visit (minus the cost of making observations), and I will actually be paid 5% the earnings from one of the 8 rounds."",""True""]",61838,255865,survey-multi-choice,A16UAN46CNIRHY,3TXMY6UCAEOIC3TQ4K5QJOV3ZNICQU,2
55,"[False, True, True, True, True, True]","[""How many flights are there per round?"",""True or false: The hidden values will change each time I start a new round."",""How much does it cost to observe each hidden value?"",""How many hidden values am I allowed to observe in each round?"",""Which statement is TRUE?"",""True of false: The duration of the delay is proportional to how much more money I could have earned by planning and deciding better.""]","[""2"",""True"",""$0.10"",""As many or as few as I wish"",""My earnings for each round are equal to the <i>sum</i> of the values of all locations I visit (minus the cost of making observations), and I will actually be paid 5% the earnings from one of the 8 rounds."",""True""]",25487,386623,survey-multi-choice,A16UAN46CNIRHY,3TXMY6UCAEOIC3TQ4K5QJOV3ZNICQU,2
57,"[True, True, True, True, True, False]","[""How many flights are there per round?"",""True or false: The hidden values will change each time I start a new round."",""How much does it cost to observe each hidden value?"",""How many hidden values am I allowed to observe in each round?"",""Which statement is TRUE?"",""True of false: The duration of the delay is proportional to how much more money I could have earned by planning and deciding better.""]","[""3"",""True"",""$0.10"",""As many or as few as I wish"",""My earnings for each round are equal to the <i>sum</i> of the values of all locations I visit (minus the cost of making observations), and I will actually be paid 5% the earnings from one of the 8 rounds."",""False""]",18957,473240,survey-multi-choice,A16UAN46CNIRHY,3TXMY6UCAEOIC3TQ4K5QJOV3ZNICQU,2
59,"[True, False, True, True, True, True]","[""How many flights are there per round?"",""True or false: The hidden values will change each time I start a new round."",""How much does it cost to observe each hidden value?"",""How many hidden values am I allowed to observe in each round?"",""Which statement is TRUE?"",""True of false: The duration of the delay is proportional to how much more money I could have earned by planning and deciding better.""]","[""3"",""False"",""$0.10"",""As many or as few as I wish"",""My earnings for each round are equal to the <i>sum</i> of the values of all locations I visit (minus the cost of making observations), and I will actually be paid 5% the earnings from one of the 8 rounds."",""True""]",36444,586492,survey-multi-choice,A16UAN46CNIRHY,3TXMY6UCAEOIC3TQ4K5QJOV3ZNICQU,2
61,"[True, True, True, True, True, True]","[""How many flights are there per round?"",""True or false: The hidden values will change each time I start a new round."",""How much does it cost to observe each hidden value?"",""How many hidden values am I allowed to observe in each round?"",""Which statement is TRUE?"",""True of false: The duration of the delay is proportional to how much more money I could have earned by planning and deciding better.""]","[""3"",""True"",""$0.10"",""As many or as few as I wish"",""My earnings for each round are equal to the <i>sum</i> of the values of all locations I visit (minus the cost of making observations), and I will actually be paid 5% the earnings from one of the 8 rounds."",""True""]",20602,615501,survey-multi-choice,A16UAN46CNIRHY,3TXMY6UCAEOIC3TQ4K5QJOV3ZNICQU,2
72,"[False, True, True, True, True, False]","[""How many flights are there per round?"",""True or false: The hidden values will change each time I start a new round."",""How much does it cost to observe each hidden value?"",""How many hidden values am I allowed to observe in each round?"",""Which statement is TRUE?"",""True of false: The duration of the delay is proportional to how much more money I could have earned by planning and deciding better.""]","[""1"",""True"",""$0.10"",""As many or as few as I wish"",""My earnings for each round are equal to the <i>sum</i> of the values of all locations I visit (minus the cost of making observations), and I will actually be paid 5% the earnings from one of the 8 rounds."",""False""]",471951,835572,survey-multi-choice,A174BCWX0VMM1B,3HVVDCPGTES87MMNHGHALKY9MI0TYY,3
74,"[False, True, True, False, True, False]","[""How many flights are there per round?"",""True or false: The hidden values will change each time I start a new round."",""How much does it cost to observe each hidden value?"",""How many hidden values am I allowed to observe in each round?"",""Which statement is TRUE?"",""True of false: The duration of the delay is proportional to how much more money I could have earned by planning and deciding better.""]","[""1"",""True"",""$0.10"",""At most 15"",""My earnings for each round are equal to the <i>sum</i> of the values of all locations I visit (minus the cost of making observations), and I will actually be paid 5% the earnings from one of the 8 rounds."",""False""]",17961,901803,survey-multi-choice,A174BCWX0VMM1B,3HVVDCPGTES87MMNHGHALKY9MI0TYY,3
76,"[False, True, True, True, True, True]","[""How many flights are there per round?"",""True or false: The hidden values will change each time I start a new round."",""How much does it cost to observe each hidden value?"",""How many hidden values am I allowed to observe in each round?"",""Which statement is TRUE?"",""True of false: The duration of the delay is proportional to how much more money I could have earned by planning and deciding better.""]","[""1"",""True"",""$0.10"",""As many or as few as I wish"",""My earnings for each round are equal to the <i>sum</i> of the values of all locations I visit (minus the cost of making observations), and I will actually be paid 5% the earnings from one of the 8 rounds."",""True""]",93847,1070658,survey-multi-choice,A174BCWX0VMM1B,3HVVDCPGTES87MMNHGHALKY9MI0TYY,3
78,"[False, True, True, False, True, False]","[""How many flights are there per round?"",""True or false: The hidden values will change each time I start a new round."",""How much does it cost to observe each hidden value?"",""How many hidden values am I allowed to observe in each round?"",""Which statement is TRUE?"",""True of false: The duration of the delay is proportional to how much more money I could have earned by planning and deciding better.""]","[""1"",""True"",""$0.10"",""At most 15"",""My earnings for each round are equal to the <i>sum</i> of the values of all locations I visit (minus the cost of making observations), and I will actually be paid 5% the earnings from one of the 8 rounds."",""False""]",56727,1206884,survey-multi-choice,A174BCWX0VMM1B,3HVVDCPGTES87MMNHGHALKY9MI0TYY,3
80,"[False, True, True, True, False, False]","[""How many flights are there per round?"",""True or false: The hidden values will change each time I start a new round."",""How much does it cost to observe each hidden value?"",""How many hidden values am I allowed to observe in each round?"",""Which statement is TRUE?"",""True of false: The duration of the delay is proportional to how much more money I could have earned by planning and deciding better.""]","[""1"",""True"",""$0.10"",""As many or as few as I wish"",""My earnings for each round are equal to the value of one of the locations I visit (minus the cost of making observations), and I will actually be paid the earnings from one of the 8 rounds."",""False""]",12043,1250681,survey-multi-choice,A174BCWX0VMM1B,3HVVDCPGTES87MMNHGHALKY9MI0TYY,3
82,"[False, True, True, True, False, False]","[""How many flights are there per round?"",""True or false: The hidden values will change each time I start a new round."",""How much does it cost to observe each hidden value?"",""How many hidden values am I allowed to observe in each round?"",""Which statement is TRUE?"",""True of false: The duration of the delay is proportional to how much more money I could have earned by planning and deciding better.""]","[""1"",""True"",""$0.10"",""As many or as few as I wish"",""My earnings for each round are equal to the value of one of the locations I visit (minus the cost of making observations), but these earnings aren't real money."",""False""]",11306,1268489,survey-multi-choice,A174BCWX0VMM1B,3HVVDCPGTES87MMNHGHALKY9MI0TYY,3
84,"[False, True, True, True, True, True]","[""How many flights are there per round?"",""True or false: The hidden values will change each time I start a new round."",""How much does it cost to observe each hidden value?"",""How many hidden values am I allowed to observe in each round?"",""Which statement is TRUE?"",""True of false: The duration of the delay is proportional to how much more money I could have earned by planning and deciding better.""]","[""1"",""True"",""$0.10"",""As many or as few as I wish"",""My earnings for each round are equal to the <i>sum</i> of the values of all locations I visit (minus the cost of making observations), and I will actually be paid 5% the earnings from one of the 8 rounds."",""True""]",61006,1336236,survey-multi-choice,A174BCWX0VMM1B,3HVVDCPGTES87MMNHGHALKY9MI0TYY,3
86,"[False, True, True, False, True, True]","[""How many flights are there per round?"",""True or false: The hidden values will change each time I start a new round."",""How much does it cost to observe each hidden value?"",""How many hidden values am I allowed to observe in each round?"",""Which statement is TRUE?"",""True of false: The duration of the delay is proportional to how much more money I could have earned by planning and deciding better.""]","[""1"",""True"",""$0.10"",""At most 1"",""My earnings for each round are equal to the <i>sum</i> of the values of all locations I visit (minus the cost of making observations), and I will actually be paid 5% the earnings from one of the 8 rounds."",""True""]",11657,1354908,survey-multi-choice,A174BCWX0VMM1B,3HVVDCPGTES87MMNHGHALKY9MI0TYY,3
88,"[False, True, True, False, True, True]","[""How many flights are there per round?"",""True or false: The hidden values will change each time I start a new round."",""How much does it cost to observe each hidden value?"",""How many hidden values am I allowed to observe in each round?"",""Which statement is TRUE?"",""True of false: The duration of the delay is proportional to how much more money I could have earned by planning and deciding better.""]","[""1"",""True"",""$0.10"",""At most 5"",""My earnings for each round are equal to the <i>sum</i> of the values of all locations I visit (minus the cost of making observations), and I will actually be paid 5% the earnings from one of the 8 rounds."",""True""]",9480,1370109,survey-multi-choice,A174BCWX0VMM1B,3HVVDCPGTES87MMNHGHALKY9MI0TYY,3
90,"[False, True, True, False, True, True]","[""How many flights are there per round?"",""True or false: The hidden values will change each time I start a new round."",""How much does it cost to observe each hidden value?"",""How many hidden values am I allowed to observe in each round?"",""Which statement is TRUE?"",""True of false: The duration of the delay is proportional to how much more money I could have earned by planning and deciding better.""]","[""1"",""True"",""$0.10"",""At most 10"",""My earnings for each round are equal to the <i>sum</i> of the values of all locations I visit (minus the cost of making observations), and I will actually be paid 5% the earnings from one of the 8 rounds."",""True""]",6164,1383663,survey-multi-choice,A174BCWX0VMM1B,3HVVDCPGTES87MMNHGHALKY9MI0TYY,3
92,"[False, True, True, False, True, True]","[""How many flights are there per round?"",""True or false: The hidden values will change each time I start a new round."",""How much does it cost to observe each hidden value?"",""How many hidden values am I allowed to observe in each round?"",""Which statement is TRUE?"",""True of false: The duration of the delay is proportional to how much more money I could have earned by planning and deciding better.""]","[""1"",""True"",""$0.10"",""At most 15"",""My earnings for each round are equal to the <i>sum</i> of the values of all locations I visit (minus the cost of making observations), and I will actually be paid 5% the earnings from one of the 8 rounds."",""True""]",6878,1397436,survey-multi-choice,A174BCWX0VMM1B,3HVVDCPGTES87MMNHGHALKY9MI0TYY,3
94,"[False, True, True, True, False, True]","[""How many flights are there per round?"",""True or false: The hidden values will change each time I start a new round."",""How much does it cost to observe each hidden value?"",""How many hidden values am I allowed to observe in each round?"",""Which statement is TRUE?"",""True of false: The duration of the delay is proportional to how much more money I could have earned by planning and deciding better.""]","[""1"",""True"",""$0.10"",""As many or as few as I wish"",""My earnings for each round are equal to the value of one of the locations I visit (minus the cost of making observations), and I will actually be paid the earnings from one of the 8 rounds."",""True""]",17462,1423026,survey-multi-choice,A174BCWX0VMM1B,3HVVDCPGTES87MMNHGHALKY9MI0TYY,3
96,"[False, True, True, True, False, True]","[""How many flights are there per round?"",""True or false: The hidden values will change each time I start a new round."",""How much does it cost to observe each hidden value?"",""How many hidden values am I allowed to observe in each round?"",""Which statement is TRUE?"",""True of false: The duration of the delay is proportional to how much more money I could have earned by planning and deciding better.""]","[""1"",""True"",""$0.10"",""As many or as few as I wish"",""My earnings for each round are equal to the value of one of the locations I visit (minus the cost of making observations), but these earnings aren't real money."",""True""]",16612,1445625,survey-multi-choice,A174BCWX0VMM1B,3HVVDCPGTES87MMNHGHALKY9MI0TYY,3
98,"[False, False, True, True, True, True]","[""How many flights are there per round?"",""True or false: The hidden values will change each time I start a new round."",""How much does it cost to observe each hidden value?"",""How many hidden values am I allowed to observe in each round?"",""Which statement is TRUE?"",""True of false: The duration of the delay is proportional to how much more money I could have earned by planning and deciding better.""]","[""1"",""False"",""$0.10"",""As many or as few as I wish"",""My earnings for each round are equal to the <i>sum</i> of the values of all locations I visit (minus the cost of making observations), and I will actually be paid 5% the earnings from one of the 8 rounds."",""True""]",28001,1479732,survey-multi-choice,A174BCWX0VMM1B,3HVVDCPGTES87MMNHGHALKY9MI0TYY,3
100,"[False, True, True, True, False, True]","[""How many flights are there per round?"",""True or false: The hidden values will change each time I start a new round."",""How much does it cost to observe each hidden value?"",""How many hidden values am I allowed to observe in each round?"",""Which statement is TRUE?"",""True of false: The duration of the delay is proportional to how much more money I could have earned by planning and deciding better.""]","[""1"",""True"",""$0.10"",""As many or as few as I wish"",""My earnings for each round are equal to the <i>sum</i> of the values of all locations I visit (minus the cost of making observations), but these earnings aren't real money."",""True""]",56071,1556754,survey-multi-choice,A174BCWX0VMM1B,3HVVDCPGTES87MMNHGHALKY9MI0TYY,3
102,"[False, True, True, True, True, True]","[""How many flights are there per round?"",""True or false: The hidden values will change each time I start a new round."",""How much does it cost to observe each hidden value?"",""How many hidden values am I allowed to observe in each round?"",""Which statement is TRUE?"",""True of false: The duration of the delay is proportional to how much more money I could have earned by planning and deciding better.""]","[""2"",""True"",""$0.10"",""As many or as few as I wish"",""My earnings for each round are equal to the <i>sum</i> of the values of all locations I visit (minus the cost of making observations), and I will actually be paid 5% the earnings from one of the 8 rounds."",""True""]",152910,1716101,survey-multi-choice,A174BCWX0VMM1B,3HVVDCPGTES87MMNHGHALKY9MI0TYY,3
104,"[True, True, True, True, True, True]","[""How many flights are there per round?"",""True or false: The hidden values will change each time I start a new round."",""How much does it cost to observe each hidden value?"",""How many hidden values am I allowed to observe in each round?"",""Which statement is TRUE?"",""True of false: The duration of the delay is proportional to how much more money I could have earned by planning and deciding better.""]","[""3"",""True"",""$0.10"",""As many or as few as I wish"",""My earnings for each round are equal to the <i>sum</i> of the values of all locations I visit (minus the cost of making observations), and I will actually be paid 5% the earnings from one of the 8 rounds."",""True""]",8800,1730047,survey-multi-choice,A174BCWX0VMM1B,3HVVDCPGTES87MMNHGHALKY9MI0TYY,3
115,"[False, True, True, True, True, True]","[""How many flights are there per round?"",""True or false: The hidden values will change each time I start a new round."",""How much does it cost to observe each hidden value?"",""How many hidden values am I allowed to observe in each round?"",""Which statement is TRUE?"",""True of false: The duration of the delay is proportional to how much more money I could have earned by planning and deciding better.""]","[""1"",""True"",""$0.10"",""As many or as few as I wish"",""My earnings for each round are equal to the <i>sum</i> of the values of all locations I visit (minus the cost of making observations), and I will actually be paid 5% the earnings from one of the 8 rounds."",""True""]",91844,534890,survey-multi-choice,A1FLNAFLLO3UPK,3LKC68YZ3A3O5PMF6YDN6D76C2HWOE,4
117,"[True, True, True, True, True, True]","[""How many flights are there per round?"",""True or false: The hidden values will change each time I start a new round."",""How much does it cost to observe each hidden value?"",""How many hidden values am I allowed to observe in each round?"",""Which statement is TRUE?"",""True of false: The duration of the delay is proportional to how much more money I could have earned by planning and deciding better.""]","[""3"",""True"",""$0.10"",""As many or as few as I wish"",""My earnings for each round are equal to the <i>sum</i> of the values of all locations I visit (minus the cost of making observations), and I will actually be paid 5% the earnings from one of the 8 rounds."",""True""]",76137,638676,survey-multi-choice,A1FLNAFLLO3UPK,3LKC68YZ3A3O5PMF6YDN6D76C2HWOE,4
128,"[False, True, True, True, True, True]","[""How many flights are there per round?"",""True or false: The hidden values will change each time I start a new round."",""How much does it cost to observe each hidden value?"",""How many hidden values am I allowed to observe in each round?"",""Which statement is TRUE?"",""True of false: The duration of the delay is proportional to how much more money I could have earned by planning and deciding better.""]","[""4"",""True"",""$0.10"",""As many or as few as I wish"",""My earnings for each round are equal to the <i>sum</i> of the values of all locations I visit (minus the cost of making observations), and I will actually be paid 5% the earnings from one of the 8 rounds."",""True""]",35673,147167,survey-multi-choice,A1GXFMAC759VRM,3X4MXAO0BGOR22EVYQUR08CBNP1RWI,5
130,"[False, True, True, True, True, True]","[""How many flights are there per round?"",""True or false: The hidden values will change each time I start a new round."",""How much does it cost to observe each hidden value?"",""How many hidden values am I allowed to observe in each round?"",""Which statement is TRUE?"",""True of false: The duration of the delay is proportional to how much more money I could have earned by planning and deciding better.""]","[""1"",""True"",""$0.10"",""As many or as few as I wish"",""My earnings for each round are equal to the <i>sum</i> of the values of all locations I visit (minus the cost of making observations), and I will actually be paid 5% the earnings from one of the 8 rounds."",""True""]",14540,185662,survey-multi-choice,A1GXFMAC759VRM,3X4MXAO0BGOR22EVYQUR08CBNP1RWI,5
132,"[True, True, True, True, True, True]","[""How many flights are there per round?"",""True or false: The hidden values will change each time I start a new round."",""How much does it cost to observe each hidden value?"",""How many hidden values am I allowed to observe in each round?"",""Which statement is TRUE?"",""True of false: The duration of the delay is proportional to how much more money I could have earned by planning and deciding better.""]","[""3"",""True"",""$0.10"",""As many or as few as I wish"",""My earnings for each round are equal to the <i>sum</i> of the values of all locations I visit (minus the cost of making observations), and I will actually be paid 5% the earnings from one of the 8 rounds."",""True""]",17398,214334,survey-multi-choice,A1GXFMAC759VRM,3X4MXAO0BGOR22EVYQUR08CBNP1RWI,5
143,"[False, True, True, True, True, True]","[""How many flights are there per round?"",""True or false: The hidden values will change each time I start a new round."",""How much does it cost to observe each hidden value?"",""How many hidden values am I allowed to observe in each round?"",""Which statement is TRUE?"",""True of false: The duration of the delay is proportional to how much more money I could have earned by planning and deciding better.""]","[""2"",""True"",""$0.10"",""As many or as few as I wish"",""My earnings for each round are equal to the <i>sum</i> of the values of all locations I visit (minus the cost of making observations), and I will actually be paid 5% the earnings from one of the 8 rounds."",""True""]",44914,137480,survey-multi-choice,A1J21DM2Z753X4,3XUHV3NRVKYK0PL86KVOW4XSGJ1H5W,6
145,"[True, True, True, True, True, True]","[""How many flights are there per round?"",""True or false: The hidden values will change each time I start a new round."",""How much does it cost to observe each hidden value?"",""How many hidden values am I allowed to observe in each round?"",""Which statement is TRUE?"",""True of false: The duration of the delay is proportional to how much more money I could have earned by planning and deciding better.""]","[""3"",""True"",""$0.10"",""As many or as few as I wish"",""My earnings for each round are equal to the <i>sum</i> of the values of all locations I visit (minus the cost of making observations), and I will actually be paid 5% the earnings from one of the 8 rounds."",""True""]",14956,184364,survey-multi-choice,A1J21DM2Z753X4,3XUHV3NRVKYK0PL86KVOW4XSGJ1H5W,6
156,"[False, True, True, True, False, True]","[""How many flights are there per round?"",""True or false: The hidden values will change each time I start a new round."",""How much does it cost to observe each hidden value?"",""How many hidden values am I allowed to observe in each round?"",""Which statement is TRUE?"",""True of false: The duration of the delay is proportional to how much more money I could have earned by planning and deciding better.""]","[""4"",""True"",""$0.10"",""As many or as few as I wish"",""My earnings for each round are equal to the value of one of the locations I visit (minus the cost of making observations), and I will actually be paid the earnings from one of the 8 rounds."",""True""]",55833,100381,survey-multi-choice,A1L3937MY09J3I,3DR23U6WE5EA1H5WHF5GEH6T46UET3,7
158,"[False, True, True, True, True, True]","[""How many flights are there per round?"",""True or false: The hidden values will change each time I start a new round."",""How much does it cost to observe each hidden value?"",""How many hidden values am I allowed to observe in each round?"",""Which statement is TRUE?"",""True of false: The duration of the delay is proportional to how much more money I could have earned by planning and deciding better.""]","[""1"",""True"",""$0.10"",""As many or as few as I wish"",""My earnings for each round are equal to the <i>sum</i> of the values of all locations I visit (minus the cost of making observations), and I will actually be paid 5% the earnings from one of the 8 rounds."",""True""]",12393,184113,survey-multi-choice,A1L3937MY09J3I,3DR23U6WE5EA1H5WHF5GEH6T46UET3,7
160,"[True, True, True, True, True, True]","[""How many flights are there per round?"",""True or false: The hidden values will change each time I start a new round."",""How much does it cost to observe each hidden value?"",""How many hidden values am I allowed to observe in each round?"",""Which statement is TRUE?"",""True of false: The duration of the delay is proportional to how much more money I could have earned by planning and deciding better.""]","[""3"",""True"",""$0.10"",""As many or as few as I wish"",""My earnings for each round are equal to the <i>sum</i> of the values of all locations I visit (minus the cost of making observations), and I will actually be paid 5% the earnings from one of the 8 rounds."",""True""]",11556,206656,survey-multi-choice,A1L3937MY09J3I,3DR23U6WE5EA1H5WHF5GEH6T46UET3,7
171,"[False, False, True, True, True, True]","[""How many flights are there per round?"",""True or false: The hidden values will change each time I start a new round."",""How much does it cost to observe each hidden value?"",""How many hidden values am I allowed to observe in each round?"",""Which statement is TRUE?"",""True of false: The duration of the delay is proportional to how much more money I could have earned by planning and deciding better.""]","[""1"",""False"",""$0.10"",""As many or as few as I wish"",""My earnings for each round are equal to the <i>sum</i> of the values of all locations I visit (minus the cost of making observations), and I will actually be paid 5% the earnings from one of the 8 rounds."",""True""]",73375,262237,survey-multi-choice,A1MIR0TP081SKT,34J10VATJFY9P6FQWU1CURTYCS3IQ3,8
173,"[False, False, True, True, True, False]","[""How many flights are there per round?"",""True or false: The hidden values will change each time I start a new round."",""How much does it cost to observe each hidden value?"",""How many hidden values am I allowed to observe in each round?"",""Which statement is TRUE?"",""True of false: The duration of the delay is proportional to how much more money I could have earned by planning and deciding better.""]","[""1"",""False"",""$0.10"",""As many or as few as I wish"",""My earnings for each round are equal to the <i>sum</i> of the values of all locations I visit (minus the cost of making observations), and I will actually be paid 5% the earnings from one of the 8 rounds."",""False""]",14590,359757,survey-multi-choice,A1MIR0TP081SKT,34J10VATJFY9P6FQWU1CURTYCS3IQ3,8
175,"[False, True, True, True, True, False]","[""How many flights are there per round?"",""True or false: The hidden values will change each time I start a new round."",""How much does it cost to observe each hidden value?"",""How many hidden values am I allowed to observe in each round?"",""Which statement is TRUE?"",""True of false: The duration of the delay is proportional to how much more money I could have earned by planning and deciding better.""]","[""1"",""True"",""$0.10"",""As many or as few as I wish"",""My earnings for each round are equal to the <i>sum</i> of the values of all locations I visit (minus the cost of making observations), and I will actually be paid 5% the earnings from one of the 8 rounds."",""False""]",12537,396557,survey-multi-choice,A1MIR0TP081SKT,34J10VATJFY9P6FQWU1CURTYCS3IQ3,8
177,"[False, True, True, True, True, True]","[""How many flights are there per round?"",""True or false: The hidden values will change each time I start a new round."",""How much does it cost to observe each hidden value?"",""How many hidden values am I allowed to observe in each round?"",""Which statement is TRUE?"",""True of false: The duration of the delay is proportional to how much more money I could have earned by planning and deciding better.""]","[""1"",""True"",""$0.10"",""As many or as few as I wish"",""My earnings for each round are equal to the <i>sum</i> of the values of all locations I visit (minus the cost of making observations), and I will actually be paid 5% the earnings from one of the 8 rounds."",""True""]",15219,424532,survey-multi-choice,A1MIR0TP081SKT,34J10VATJFY9P6FQWU1CURTYCS3IQ3,8
179,"[False, True, True, True, True, True]","[""How many flights are there per round?"",""True or false: The hidden values will change each time I start a new round."",""How much does it cost to observe each hidden value?"",""How many hidden values am I allowed to observe in each round?"",""Which statement is TRUE?"",""True of false: The duration of the delay is proportional to how much more money I could have earned by planning and deciding better.""]","[""1"",""True"",""$0.10"",""As many or as few as I wish"",""My earnings for each round are equal to the <i>sum</i> of the values of all locations I visit (minus the cost of making observations), and I will actually be paid 5% the earnings from one of the 8 rounds."",""True""]",45726,584636,survey-multi-choice,A1MIR0TP081SKT,34J10VATJFY9P6FQWU1CURTYCS3IQ3,8
181,"[False, True, True, True, True, False]","[""How many flights are there per round?"",""True or false: The hidden values will change each time I start a new round."",""How much does it cost to observe each hidden value?"",""How many hidden values am I allowed to observe in each round?"",""Which statement is TRUE?"",""True of false: The duration of the delay is proportional to how much more money I could have earned by planning and deciding better.""]","[""1"",""True"",""$0.10"",""As many or as few as I wish"",""My earnings for each round are equal to the <i>sum</i> of the values of all locations I visit (minus the cost of making observations), and I will actually be paid 5% the earnings from one of the 8 rounds."",""False""]",37216,650549,survey-multi-choice,A1MIR0TP081SKT,34J10VATJFY9P6FQWU1CURTYCS3IQ3,8
183,"[False, True, True, True, False, True]","[""How many flights are there per round?"",""True or false: The hidden values will change each time I start a new round."",""How much does it cost to observe each hidden value?"",""How many hidden values am I allowed to observe in each round?"",""Which statement is TRUE?"",""True of false: The duration of the delay is proportional to how much more money I could have earned by planning and deciding better.""]","[""1"",""True"",""$0.10"",""As many or as few as I wish"",""My earnings for each round are equal to the value of one of the locations I visit (minus the cost of making observations), and I will actually be paid the earnings from one of the 8 rounds."",""True""]",60343,718683,survey-multi-choice,A1MIR0TP081SKT,34J10VATJFY9P6FQWU1CURTYCS3IQ3,8
185,"[False, True, True, True, False, True]","[""How many flights are there per round?"",""True or false: The hidden values will change each time I start a new round."",""How much does it cost to observe each hidden value?"",""How many hidden values am I allowed to observe in each round?"",""Which statement is TRUE?"",""True of false: The duration of the delay is proportional to how much more money I could have earned by planning and deciding better.""]","[""1"",""True"",""$0.10"",""As many or as few as I wish"",""My earnings for each round are equal to the <i>sum</i> of the values of all locations I visit (minus the cost of making observations), but these earnings aren't real money."",""True""]",85382,913266,survey-multi-choice,A1MIR0TP081SKT,34J10VATJFY9P6FQWU1CURTYCS3IQ3,8
187,"[False, True, True, True, False, True]","[""How many flights are there per round?"",""True or false: The hidden values will change each time I start a new round."",""How much does it cost to observe each hidden value?"",""How many hidden values am I allowed to observe in each round?"",""Which statement is TRUE?"",""True of false: The duration of the delay is proportional to how much more money I could have earned by planning and deciding better.""]","[""1"",""True"",""$0.10"",""As many or as few as I wish"",""My earnings for each round are equal to the value of one of the locations I visit (minus the cost of making observations), but these earnings aren't real money."",""True""]",71404,1062522,survey-multi-choice,A1MIR0TP081SKT,34J10VATJFY9P6FQWU1CURTYCS3IQ3,8
189,"[False, True, True, True, False, True]","[""How many flights are there per round?"",""True or false: The hidden values will change each time I start a new round."",""How much does it cost to observe each hidden value?"",""How many hidden values am I allowed to observe in each round?"",""Which statement is TRUE?"",""True of false: The duration of the delay is proportional to how much more money I could have earned by planning and deciding better.""]","[""1"",""True"",""$0.10"",""As many or as few as I wish"",""My earnings for each round are equal to the value of one of the locations I visit (minus the cost of making observations), and I will actually be paid the earnings from one of the 8 rounds."",""True""]",17768,1088978,survey-multi-choice,A1MIR0TP081SKT,34J10VATJFY9P6FQWU1CURTYCS3IQ3,8
191,"[False, True, True, True, False, True]","[""How many flights are there per round?"",""True or false: The hidden values will change each time I start a new round."",""How much does it cost to observe each hidden value?"",""How many hidden values am I allowed to observe in each round?"",""Which statement is TRUE?"",""True of false: The duration of the delay is proportional to how much more money I could have earned by planning and deciding better.""]","[""1"",""True"",""$0.10"",""As many or as few as I wish"",""My earnings for each round are equal to the value of one of the locations I visit (minus the cost of making observations), but these earnings aren't real money."",""True""]",12317,1110346,survey-multi-choice,A1MIR0TP081SKT,34J10VATJFY9P6FQWU1CURTYCS3IQ3,8
193,"[False, True, True, True, False, False]","[""How many flights are there per round?"",""True or false: The hidden values will change each time I start a new round."",""How much does it cost to observe each hidden value?"",""How many hidden values am I allowed to observe in each round?"",""Which statement is TRUE?"",""True of false: The duration of the delay is proportional to how much more money I could have earned by planning and deciding better.""]","[""1"",""True"",""$0.10"",""As many or as few as I wish"",""My earnings for each round are equal to the value of one of the locations I visit (minus the cost of making observations), but these earnings aren't real money."",""False""]",20526,1137930,survey-multi-choice,A1MIR0TP081SKT,34J10VATJFY9P6FQWU1CURTYCS3IQ3,8
195,"[False, True, True, True, True, False]","[""How many flights are there per round?"",""True or false: The hidden values will change each time I start a new round."",""How much does it cost to observe each hidden value?"",""How many hidden values am I allowed to observe in each round?"",""Which statement is TRUE?"",""True of false: The duration of the delay is proportional to how much more money I could have earned by planning and deciding better.""]","[""1"",""True"",""$0.10"",""As many or as few as I wish"",""My earnings for each round are equal to the <i>sum</i> of the values of all locations I visit (minus the cost of making observations), and I will actually be paid 5% the earnings from one of the 8 rounds."",""False""]",23953,1169498,survey-multi-choice,A1MIR0TP081SKT,34J10VATJFY9P6FQWU1CURTYCS3IQ3,8
197,"[False, True, True, True, True, True]","[""How many flights are there per round?"",""True or false: The hidden values will change each time I start a new round."",""How much does it cost to observe each hidden value?"",""How many hidden values am I allowed to observe in each round?"",""Which statement is TRUE?"",""True of false: The duration of the delay is proportional to how much more money I could have earned by planning and deciding better.""]","[""1"",""True"",""$0.10"",""As many or as few as I wish"",""My earnings for each round are equal to the <i>sum</i> of the values of all locations I visit (minus the cost of making observations), and I will actually be paid 5% the earnings from one of the 8 rounds."",""True""]",53201,1229753,survey-multi-choice,A1MIR0TP081SKT,34J10VATJFY9P6FQWU1CURTYCS3IQ3,8
199,"[False, True, True, True, True, True]","[""How many flights are there per round?"",""True or false: The hidden values will change each time I start a new round."",""How much does it cost to observe each hidden value?"",""How many hidden values am I allowed to observe in each round?"",""Which statement is TRUE?"",""True of false: The duration of the delay is proportional to how much more money I could have earned by planning and deciding better.""]","[""1"",""True"",""$0.10"",""As many or as few as I wish"",""My earnings for each round are equal to the <i>sum</i> of the values of all locations I visit (minus the cost of making observations), and I will actually be paid 5% the earnings from one of the 8 rounds."",""True""]",24515,1353705,survey-multi-choice,A1MIR0TP081SKT,34J10VATJFY9P6FQWU1CURTYCS3IQ3,8
201,"[False, True, True, True, True, True]","[""How many flights are there per round?"",""True or false: The hidden values will change each time I start a new round."",""How much does it cost to observe each hidden value?"",""How many hidden values am I allowed to observe in each round?"",""Which statement is TRUE?"",""True of false: The duration of the delay is proportional to how much more money I could have earned by planning and deciding better.""]","[""2"",""True"",""$0.10"",""As many or as few as I wish"",""My earnings for each round are equal to the <i>sum</i> of the values of all locations I visit (minus the cost of making observations), and I will actually be paid 5% the earnings from one of the 8 rounds."",""True""]",61661,1423817,survey-multi-choice,A1MIR0TP081SKT,34J10VATJFY9P6FQWU1CURTYCS3IQ3,8
203,"[False, True, True, True, False, True]","[""How many flights are there per round?"",""True or false: The hidden values will change each time I start a new round."",""How much does it cost to observe each hidden value?"",""How many hidden values am I allowed to observe in each round?"",""Which statement is TRUE?"",""True of false: The duration of the delay is proportional to how much more money I could have earned by planning and deciding better.""]","[""1"",""True"",""$0.10"",""As many or as few as I wish"",""My earnings for each round are equal to the <i>sum</i> of the values of all locations I visit (minus the cost of making observations), but these earnings aren't real money."",""True""]",17656,1447489,survey-multi-choice,A1MIR0TP081SKT,34J10VATJFY9P6FQWU1CURTYCS3IQ3,8
205,"[False, True, True, True, False, True]","[""How many flights are there per round?"",""True or false: The hidden values will change each time I start a new round."",""How much does it cost to observe each hidden value?"",""How many hidden values am I allowed to observe in each round?"",""Which statement is TRUE?"",""True of false: The duration of the delay is proportional to how much more money I could have earned by planning and deciding better.""]","[""1"",""True"",""$0.10"",""As many or as few as I wish"",""My earnings for each round are equal to the value of one of the locations I visit (minus the cost of making observations), but these earnings aren't real money."",""True""]",9524,1463025,survey-multi-choice,A1MIR0TP081SKT,34J10VATJFY9P6FQWU1CURTYCS3IQ3,8
207,"[False, True, True, True, False, True]","[""How many flights are there per round?"",""True or false: The hidden values will change each time I start a new round."",""How much does it cost to observe each hidden value?"",""How many hidden values am I allowed to observe in each round?"",""Which statement is TRUE?"",""True of false: The duration of the delay is proportional to how much more money I could have earned by planning and deciding better.""]","[""1"",""True"",""$0.10"",""As many or as few as I wish"",""My earnings for each round are equal to the value of one of the locations I visit (minus the cost of making observations), and I will actually be paid the earnings from one of the 8 rounds."",""True""]",16394,1484809,survey-multi-choice,A1MIR0TP081SKT,34J10VATJFY9P6FQWU1CURTYCS3IQ3,8
209,"[False, True, True, True, False, True]","[""How many flights are there per round?"",""True or false: The hidden values will change each time I start a new round."",""How much does it cost to observe each hidden value?"",""How many hidden values am I allowed to observe in each round?"",""Which statement is TRUE?"",""True of false: The duration of the delay is proportional to how much more money I could have earned by planning and deciding better.""]","[""1"",""True"",""$0.10"",""As many or as few as I wish"",""My earnings for each round are equal to the value of one of the locations I visit (minus the cost of making observations), but these earnings aren't real money."",""True""]",13698,1506170,survey-multi-choice,A1MIR0TP081SKT,34J10VATJFY9P6FQWU1CURTYCS3IQ3,8
211,"[False, True, True, True, True, True]","[""How many flights are there per round?"",""True or false: The hidden values will change each time I start a new round."",""How much does it cost to observe each hidden value?"",""How many hidden values am I allowed to observe in each round?"",""Which statement is TRUE?"",""True of false: The duration of the delay is proportional to how much more money I could have earned by planning and deciding better.""]","[""1"",""True"",""$0.10"",""As many or as few as I wish"",""My earnings for each round are equal to the <i>sum</i> of the values of all locations I visit (minus the cost of making observations), and I will actually be paid 5% the earnings from one of the 8 rounds."",""True""]",19907,1532641,survey-multi-choice,A1MIR0TP081SKT,34J10VATJFY9P6FQWU1CURTYCS3IQ3,8
213,"[False, True, True, True, True, False]","[""How many flights are there per round?"",""True or false: The hidden values will change each time I start a new round."",""How much does it cost to observe each hidden value?"",""How many hidden values am I allowed to observe in each round?"",""Which statement is TRUE?"",""True of false: The duration of the delay is proportional to how much more money I could have earned by planning and deciding better.""]","[""1"",""True"",""$0.10"",""As many or as few as I wish"",""My earnings for each round are equal to the <i>sum</i> of the values of all locations I visit (minus the cost of making observations), and I will actually be paid 5% the earnings from one of the 8 rounds."",""False""]",65738,1627337,survey-multi-choice,A1MIR0TP081SKT,34J10VATJFY9P6FQWU1CURTYCS3IQ3,8
215,"[False, True, True, True, True, True]","[""How many flights are there per round?"",""True or false: The hidden values will change each time I start a new round."",""How much does it cost to observe each hidden value?"",""How many hidden values am I allowed to observe in each round?"",""Which statement is TRUE?"",""True of false: The duration of the delay is proportional to how much more money I could have earned by planning and deciding better.""]","[""1"",""True"",""$0.10"",""As many or as few as I wish"",""My earnings for each round are equal to the <i>sum</i> of the values of all locations I visit (minus the cost of making observations), and I will actually be paid 5% the earnings from one of the 8 rounds."",""True""]",72331,1707008,survey-multi-choice,A1MIR0TP081SKT,34J10VATJFY9P6FQWU1CURTYCS3IQ3,8
217,"[False, True, True, True, True, True]","[""How many flights are there per round?"",""True or false: The hidden values will change each time I start a new round."",""How much does it cost to observe each hidden value?"",""How many hidden values am I allowed to observe in each round?"",""Which statement is TRUE?"",""True of false: The duration of the delay is proportional to how much more money I could have earned by planning and deciding better.""]","[""1"",""True"",""$0.10"",""As many or as few as I wish"",""My earnings for each round are equal to the <i>sum</i> of the values of all locations I visit (minus the cost of making observations), and I will actually be paid 5% the earnings from one of the 8 rounds."",""True""]",27500,1852896,survey-multi-choice,A1MIR0TP081SKT,34J10VATJFY9P6FQWU1CURTYCS3IQ3,8
219,"[False, True, True, True, True, False]","[""How many flights are there per round?"",""True or false: The hidden values will change each time I start a new round."",""How much does it cost to observe each hidden value?"",""How many hidden values am I allowed to observe in each round?"",""Which statement is TRUE?"",""True of false: The duration of the delay is proportional to how much more money I could have earned by planning and deciding better.""]","[""1"",""True"",""$0.10"",""As many or as few as I wish"",""My earnings for each round are equal to the <i>sum</i> of the values of all locations I visit (minus the cost of making observations), and I will actually be paid 5% the earnings from one of the 8 rounds."",""False""]",17477,1932007,survey-multi-choice,A1MIR0TP081SKT,34J10VATJFY9P6FQWU1CURTYCS3IQ3,8
221,"[False, True, True, True, True, True]","[""How many flights are there per round?"",""True or false: The hidden values will change each time I start a new round."",""How much does it cost to observe each hidden value?"",""How many hidden values am I allowed to observe in each round?"",""Which statement is TRUE?"",""True of false: The duration of the delay is proportional to how much more money I could have earned by planning and deciding better.""]","[""1"",""True"",""$0.10"",""As many or as few as I wish"",""My earnings for each round are equal to the <i>sum</i> of the values of all locations I visit (minus the cost of making observations), and I will actually be paid 5% the earnings from one of the 8 rounds."",""True""]",10125,1948735,survey-multi-choice,A1MIR0TP081SKT,34J10VATJFY9P6FQWU1CURTYCS3IQ3,8
223,"[False, True, True, True, True, True]","[""How many flights are there per round?"",""True or false: The hidden values will change each time I start a new round."",""How much does it cost to observe each hidden value?"",""How many hidden values am I allowed to observe in each round?"",""Which statement is TRUE?"",""True of false: The duration of the delay is proportional to how much more money I could have earned by planning and deciding better.""]","[""4"",""True"",""$0.10"",""As many or as few as I wish"",""My earnings for each round are equal to the <i>sum</i> of the values of all locations I visit (minus the cost of making observations), and I will actually be paid 5% the earnings from one of the 8 rounds."",""True""]",104825,2060112,survey-multi-choice,A1MIR0TP081SKT,34J10VATJFY9P6FQWU1CURTYCS3IQ3,8
225,"[False, True, True, True, True, True]","[""How many flights are there per round?"",""True or false: The hidden values will change each time I start a new round."",""How much does it cost to observe each hidden value?"",""How many hidden values am I allowed to observe in each round?"",""Which statement is TRUE?"",""True of false: The duration of the delay is proportional to how much more money I could have earned by planning and deciding better.""]","[""2"",""True"",""$0.10"",""As many or as few as I wish"",""My earnings for each round are equal to the <i>sum</i> of the values of all locations I visit (minus the cost of making observations), and I will actually be paid 5% the earnings from one of the 8 rounds."",""True""]",9398,2080463,survey-multi-choice,A1MIR0TP081SKT,34J10VATJFY9P6FQWU1CURTYCS3IQ3,8
227,"[True, True, True, True, True, True]","[""How many flights are there per round?"",""True or false: The hidden values will change each time I start a new round."",""How much does it cost to observe each hidden value?"",""How many hidden values am I allowed to observe in each round?"",""Which statement is TRUE?"",""True of false: The duration of the delay is proportional to how much more money I could have earned by planning and deciding better.""]","[""3"",""True"",""$0.10"",""As many or as few as I wish"",""My earnings for each round are equal to the <i>sum</i> of the values of all locations I visit (minus the cost of making observations), and I will actually be paid 5% the earnings from one of the 8 rounds."",""True""]",10642,2095185,survey-multi-choice,A1MIR0TP081SKT,34J10VATJFY9P6FQWU1CURTYCS3IQ3,8
238,"[False, True, True, True, True, True]","[""How many flights are there per round?"",""True or false: The hidden values will change each time I start a new round."",""How much does it cost to observe each hidden value?"",""How many hidden values am I allowed to observe in each round?"",""Which statement is TRUE?"",""True of false: The duration of the delay is proportional to how much more money I could have earned by planning and deciding better.""]","[""1"",""True"",""$0.10"",""As many or as few as I wish"",""My earnings for each round are equal to the <i>sum</i> of the values of all locations I visit (minus the cost of making observations), and I will actually be paid 5% the earnings from one of the 8 rounds."",""True""]",29336,148730,survey-multi-choice,A1NUKP1UCT2R2R,3YDGXNSEOZU9BVGFPBI8EZYFD4G48Z,9
240,"[False, True, True, True, True, False]","[""How many flights are there per round?"",""True or false: The hidden values will change each time I start a new round."",""How much does it cost to observe each hidden value?"",""How many hidden values am I allowed to observe in each round?"",""Which statement is TRUE?"",""True of false: The duration of the delay is proportional to how much more money I could have earned by planning and deciding better.""]","[""1"",""True"",""$0.10"",""As many or as few as I wish"",""My earnings for each round are equal to the <i>sum</i> of the values of all locations I visit (minus the cost of making observations), and I will actually be paid 5% the earnings from one of the 8 rounds."",""False""]",15602,176737,survey-multi-choice,A1NUKP1UCT2R2R,3YDGXNSEOZU9BVGFPBI8EZYFD4G48Z,9
242,"[False, True, True, False, True, True]","[""How many flights are there per round?"",""True or false: The hidden values will change each time I start a new round."",""How much does it cost to observe each hidden value?"",""How many hidden values am I allowed to observe in each round?"",""Which statement is TRUE?"",""True of false: The duration of the delay is proportional to how much more money I could have earned by planning and deciding better.""]","[""1"",""True"",""$0.10"",""At most 15"",""My earnings for each round are equal to the <i>sum</i> of the values of all locations I visit (minus the cost of making observations), and I will actually be paid 5% the earnings from one of the 8 rounds."",""True""]",15168,271986,survey-multi-choice,A1NUKP1UCT2R2R,3YDGXNSEOZU9BVGFPBI8EZYFD4G48Z,9
244,"[True, True, True, True, True, True]","[""How many flights are there per round?"",""True or false: The hidden values will change each time I start a new round."",""How much does it cost to observe each hidden value?"",""How many hidden values am I allowed to observe in each round?"",""Which statement is TRUE?"",""True of false: The duration of the delay is proportional to how much more money I could have earned by planning and deciding better.""]","[""3"",""True"",""$0.10"",""As many or as few as I wish"",""My earnings for each round are equal to the <i>sum</i> of the values of all locations I visit (minus the cost of making observations), and I will actually be paid 5% the earnings from one of the 8 rounds."",""True""]",20140,341232,survey-multi-choice,A1NUKP1UCT2R2R,3YDGXNSEOZU9BVGFPBI8EZYFD4G48Z,9
255,"[False, True, False, True, True, False]","[""How many flights are there per round?"",""True or false: The hidden values will change each time I start a new round."",""How much does it cost to observe each hidden value?"",""How many hidden values am I allowed to observe in each round?"",""Which statement is TRUE?"",""True of false: The duration of the delay is proportional to how much more money I could have earned by planning and deciding better.""]","[""1"",""True"",""$0.00"",""As many or as few as I wish"",""My earnings for each round are equal to the <i>sum</i> of the values of all locations I visit (minus the cost of making observations), and I will actually be paid 5% the earnings from one of the 8 rounds."",""False""]",39330,146262,survey-multi-choice,A1OK974KXKO6FJ,3M68NM076H7T8NZP78HN2EDYZN96RX,10
257,"[True, True, True, True, True, True]","[""How many flights are there per round?"",""True or false: The hidden values will change each time I start a new round."",""How much does it cost to observe each hidden value?"",""How many hidden values am I allowed to observe in each round?"",""Which statement is TRUE?"",""True of false: The duration of the delay is proportional to how much more money I could have earned by planning and deciding better.""]","[""3"",""True"",""$0.10"",""As many or as few as I wish"",""My earnings for each round are equal to the <i>sum</i> of the values of all locations I visit (minus the cost of making observations), and I will actually be paid 5% the earnings from one of the 8 rounds."",""True""]",14630,238624,survey-multi-choice,A1OK974KXKO6FJ,3M68NM076H7T8NZP78HN2EDYZN96RX,10
268,"[False, True, True, True, True, False]","[""How many flights are there per round?"",""True or false: The hidden values will change each time I start a new round."",""How much does it cost to observe each hidden value?"",""How many hidden values am I allowed to observe in each round?"",""Which statement is TRUE?"",""True of false: The duration of the delay is proportional to how much more money I could have earned by planning and deciding better.""]","[""4"",""True"",""$0.10"",""As many or as few as I wish"",""My earnings for each round are equal to the <i>sum</i> of the values of all locations I visit (minus the cost of making observations), and I will actually be paid 5% the earnings from one of the 8 rounds."",""False""]",39302,2012177,survey-multi-choice,A1SP4XA17LVUQI,3SLE99ER0ND8GQ2BDGS8ZX1PM52ZB3,11
270,"[False, True, True, True, True, False]","[""How many flights are there per round?"",""True or false: The hidden values will change each time I start a new round."",""How much does it cost to observe each hidden value?"",""How many hidden values am I allowed to observe in each round?"",""Which statement is TRUE?"",""True of false: The duration of the delay is proportional to how much more money I could have earned by planning and deciding better.""]","[""2"",""True"",""$0.10"",""As many or as few as I wish"",""My earnings for each round are equal to the <i>sum</i> of the values of all locations I visit (minus the cost of making observations), and I will actually be paid 5% the earnings from one of the 8 rounds."",""False""]",23309,2095141,survey-multi-choice,A1SP4XA17LVUQI,3SLE99ER0ND8GQ2BDGS8ZX1PM52ZB3,11
272,"[False, True, True, True, True, False]","[""How many flights are there per round?"",""True or false: The hidden values will change each time I start a new round."",""How much does it cost to observe each hidden value?"",""How many hidden values am I allowed to observe in each round?"",""Which statement is TRUE?"",""True of false: The duration of the delay is proportional to how much more money I could have earned by planning and deciding better.""]","[""4"",""True"",""$0.10"",""As many or as few as I wish"",""My earnings for each round are equal to the <i>sum</i> of the values of all locations I visit (minus the cost of making observations), and I will actually be paid 5% the earnings from one of the 8 rounds."",""False""]",31695,2187118,survey-multi-choice,A1SP4XA17LVUQI,3SLE99ER0ND8GQ2BDGS8ZX1PM52ZB3,11
274,"[False, True, True, True, True, True]","[""How many flights are there per round?"",""True or false: The hidden values will change each time I start a new round."",""How much does it cost to observe each hidden value?"",""How many hidden values am I allowed to observe in each round?"",""Which statement is TRUE?"",""True of false: The duration of the delay is proportional to how much more money I could have earned by planning and deciding better.""]","[""2"",""True"",""$0.10"",""As many or as few as I wish"",""My earnings for each round are equal to the <i>sum</i> of the values of all locations I visit (minus the cost of making observations), and I will actually be paid 5% the earnings from one of the 8 rounds."",""True""]",21856,2221990,survey-multi-choice,A1SP4XA17LVUQI,3SLE99ER0ND8GQ2BDGS8ZX1PM52ZB3,11
276,"[False, True, True, False, True, True]","[""How many flights are there per round?"",""True or false: The hidden values will change each time I start a new round."",""How much does it cost to observe each hidden value?"",""How many hidden values am I allowed to observe in each round?"",""Which statement is TRUE?"",""True of false: The duration of the delay is proportional to how much more money I could have earned by planning and deciding better.""]","[""2"",""True"",""$0.10"",""At most 15"",""My earnings for each round are equal to the <i>sum</i> of the values of all locations I visit (minus the cost of making observations), and I will actually be paid 5% the earnings from one of the 8 rounds."",""True""]",16141,2246573,survey-multi-choice,A1SP4XA17LVUQI,3SLE99ER0ND8GQ2BDGS8ZX1PM52ZB3,11
278,"[False, True, True, True, True, False]","[""How many flights are there per round?"",""True or false: The hidden values will change each time I start a new round."",""How much does it cost to observe each hidden value?"",""How many hidden values am I allowed to observe in each round?"",""Which statement is TRUE?"",""True of false: The duration of the delay is proportional to how much more money I could have earned by planning and deciding better.""]","[""4"",""True"",""$0.10"",""As many or as few as I wish"",""My earnings for each round are equal to the <i>sum</i> of the values of all locations I visit (minus the cost of making observations), and I will actually be paid 5% the earnings from one of the 8 rounds."",""False""]",16624,2330313,survey-multi-choice,A1SP4XA17LVUQI,3SLE99ER0ND8GQ2BDGS8ZX1PM52ZB3,11
280,"[False, True, True, True, True, False]","[""How many flights are there per round?"",""True or false: The hidden values will change each time I start a new round."",""How much does it cost to observe each hidden value?"",""How many hidden values am I allowed to observe in each round?"",""Which statement is TRUE?"",""True of false: The duration of the delay is proportional to how much more money I could have earned by planning and deciding better.""]","[""1"",""True"",""$0.10"",""As many or as few as I wish"",""My earnings for each round are equal to the <i>sum</i> of the values of all locations I visit (minus the cost of making observations), and I will actually be paid 5% the earnings from one of the 8 rounds."",""False""]",18316,2413406,survey-multi-choice,A1SP4XA17LVUQI,3SLE99ER0ND8GQ2BDGS8ZX1PM52ZB3,11
282,"[True, True, True, True, True, False]","[""How many flights are there per round?"",""True or false: The hidden values will change each time I start a new round."",""How much does it cost to observe each hidden value?"",""How many hidden values am I allowed to observe in each round?"",""Which statement is TRUE?"",""True of false: The duration of the delay is proportional to how much more money I could have earned by planning and deciding better.""]","[""3"",""True"",""$0.10"",""As many or as few as I wish"",""My earnings for each round are equal to the <i>sum</i> of the values of all locations I visit (minus the cost of making observations), and I will actually be paid 5% the earnings from one of the 8 rounds."",""False""]",13351,2436084,survey-multi-choice,A1SP4XA17LVUQI,3SLE99ER0ND8GQ2BDGS8ZX1PM52ZB3,11
284,"[True, True, True, True, True, False]","[""How many flights are there per round?"",""True or false: The hidden values will change each time I start a new round."",""How much does it cost to observe each hidden value?"",""How many hidden values am I allowed to observe in each round?"",""Which statement is TRUE?"",""True of false: The duration of the delay is proportional to how much more money I could have earned by planning and deciding better.""]","[""3"",""True"",""$0.10"",""As many or as few as I wish"",""My earnings for each round are equal to the <i>sum</i> of the values of all locations I visit (minus the cost of making observations), and I will actually be paid 5% the earnings from one of the 8 rounds."",""False""]",19560,2956826,survey-multi-choice,A1SP4XA17LVUQI,3SLE99ER0ND8GQ2BDGS8ZX1PM52ZB3,11
286,"[True, True, True, True, False, False]","[""How many flights are there per round?"",""True or false: The hidden values will change each time I start a new round."",""How much does it cost to observe each hidden value?"",""How many hidden values am I allowed to observe in each round?"",""Which statement is TRUE?"",""True of false: The duration of the delay is proportional to how much more money I could have earned by planning and deciding better.""]","[""3"",""True"",""$0.10"",""As many or as few as I wish"",""My earnings for each round are equal to the value of one of the locations I visit (minus the cost of making observations), and I will actually be paid the earnings from one of the 8 rounds."",""False""]",45680,3014727,survey-multi-choice,A1SP4XA17LVUQI,3SLE99ER0ND8GQ2BDGS8ZX1PM52ZB3,11
288,"[True, True, True, True, False, False]","[""How many flights are there per round?"",""True or false: The hidden values will change each time I start a new round."",""How much does it cost to observe each hidden value?"",""How many hidden values am I allowed to observe in each round?"",""Which statement is TRUE?"",""True of false: The duration of the delay is proportional to how much more money I could have earned by planning and deciding better.""]","[""3"",""True"",""$0.10"",""As many or as few as I wish"",""My earnings for each round are equal to the value of one of the locations I visit (minus the cost of making observations), but these earnings aren't real money."",""False""]",33294,3070031,survey-multi-choice,A1SP4XA17LVUQI,3SLE99ER0ND8GQ2BDGS8ZX1PM52ZB3,11
290,"[True, True, True, True, False, False]","[""How many flights are there per round?"",""True or false: The hidden values will change each time I start a new round."",""How much does it cost to observe each hidden value?"",""How many hidden values am I allowed to observe in each round?"",""Which statement is TRUE?"",""True of false: The duration of the delay is proportional to how much more money I could have earned by planning and deciding better.""]","[""3"",""True"",""$0.10"",""As many or as few as I wish"",""My earnings for each round are equal to the value of one of the locations I visit (minus the cost of making observations), and I will actually be paid the earnings from one of the 8 rounds."",""False""]",27305,3112868,survey-multi-choice,A1SP4XA17LVUQI,3SLE99ER0ND8GQ2BDGS8ZX1PM52ZB3,11
292,"[True, True, True, True, False, True]","[""How many flights are there per round?"",""True or false: The hidden values will change each time I start a new round."",""How much does it cost to observe each hidden value?"",""How many hidden values am I allowed to observe in each round?"",""Which statement is TRUE?"",""True of false: The duration of the delay is proportional to how much more money I could have earned by planning and deciding better.""]","[""3"",""True"",""$0.10"",""As many or as few as I wish"",""My earnings for each round are equal to the value of one of the locations I visit (minus the cost of making observations), but these earnings aren't real money."",""True""]",26214,3149836,survey-multi-choice,A1SP4XA17LVUQI,3SLE99ER0ND8GQ2BDGS8ZX1PM52ZB3,11
294,"[False, True, True, True, False, False]","[""How many flights are there per round?"",""True or false: The hidden values will change each time I start a new round."",""How much does it cost to observe each hidden value?"",""How many hidden values am I allowed to observe in each round?"",""Which statement is TRUE?"",""True of false: The duration of the delay is proportional to how much more money I could have earned by planning and deciding better.""]","[""1"",""True"",""$0.10"",""As many or as few as I wish"",""My earnings for each round are equal to the value of one of the locations I visit (minus the cost of making observations), but these earnings aren't real money."",""False""]",13870,3182748,survey-multi-choice,A1SP4XA17LVUQI,3SLE99ER0ND8GQ2BDGS8ZX1PM52ZB3,11
296,"[False, True, True, True, False, True]","[""How many flights are there per round?"",""True or false: The hidden values will change each time I start a new round."",""How much does it cost to observe each hidden value?"",""How many hidden values am I allowed to observe in each round?"",""Which statement is TRUE?"",""True of false: The duration of the delay is proportional to how much more money I could have earned by planning and deciding better.""]","[""1"",""True"",""$0.10"",""As many or as few as I wish"",""My earnings for each round are equal to the value of one of the locations I visit (minus the cost of making observations), but these earnings aren't real money."",""True""]",12108,3204923,survey-multi-choice,A1SP4XA17LVUQI,3SLE99ER0ND8GQ2BDGS8ZX1PM52ZB3,11
298,"[False, True, True, True, False, True]","[""How many flights are there per round?"",""True or false: The hidden values will change each time I start a new round."",""How much does it cost to observe each hidden value?"",""How many hidden values am I allowed to observe in each round?"",""Which statement is TRUE?"",""True of false: The duration of the delay is proportional to how much more money I could have earned by planning and deciding better.""]","[""1"",""True"",""$0.10"",""As many or as few as I wish"",""My earnings for each round are equal to the value of one of the locations I visit (minus the cost of making observations), and I will actually be paid the earnings from one of the 8 rounds."",""True""]",13477,3227377,survey-multi-choice,A1SP4XA17LVUQI,3SLE99ER0ND8GQ2BDGS8ZX1PM52ZB3,11
300,"[False, True, True, True, False, False]","[""How many flights are there per round?"",""True or false: The hidden values will change each time I start a new round."",""How much does it cost to observe each hidden value?"",""How many hidden values am I allowed to observe in each round?"",""Which statement is TRUE?"",""True of false: The duration of the delay is proportional to how much more money I could have earned by planning and deciding better.""]","[""1"",""True"",""$0.10"",""As many or as few as I wish"",""My earnings for each round are equal to the value of one of the locations I visit (minus the cost of making observations), and I will actually be paid the earnings from one of the 8 rounds."",""False""]",16953,3255706,survey-multi-choice,A1SP4XA17LVUQI,3SLE99ER0ND8GQ2BDGS8ZX1PM52ZB3,11
302,"[True, True, True, True, False, True]","[""How many flights are there per round?"",""True or false: The hidden values will change each time I start a new round."",""How much does it cost to observe each hidden value?"",""How many hidden values am I allowed to observe in each round?"",""Which statement is TRUE?"",""True of false: The duration of the delay is proportional to how much more money I could have earned by planning and deciding better.""]","[""3"",""True"",""$0.10"",""As many or as few as I wish"",""My earnings for each round are equal to the value of one of the locations I visit (minus the cost of making observations), but these earnings aren't real money."",""True""]",16808,3357300,survey-multi-choice,A1SP4XA17LVUQI,3SLE99ER0ND8GQ2BDGS8ZX1PM52ZB3,11
304,"[False, True, True, True, False, True]","[""How many flights are there per round?"",""True or false: The hidden values will change each time I start a new round."",""How much does it cost to observe each hidden value?"",""How many hidden values am I allowed to observe in each round?"",""Which statement is TRUE?"",""True of false: The duration of the delay is proportional to how much more money I could have earned by planning and deciding better.""]","[""1"",""True"",""$0.10"",""As many or as few as I wish"",""My earnings for each round are equal to the value of one of the locations I visit (minus the cost of making observations), but these earnings aren't real money."",""True""]",38250,3407092,survey-multi-choice,A1SP4XA17LVUQI,3SLE99ER0ND8GQ2BDGS8ZX1PM52ZB3,11
306,"[False, True, True, True, True, True]","[""How many flights are there per round?"",""True or false: The hidden values will change each time I start a new round."",""How much does it cost to observe each hidden value?"",""How many hidden values am I allowed to observe in each round?"",""Which statement is TRUE?"",""True of false: The duration of the delay is proportional to how much more money I could have earned by planning and deciding better.""]","[""1"",""True"",""$0.10"",""As many or as few as I wish"",""My earnings for each round are equal to the <i>sum</i> of the values of all locations I visit (minus the cost of making observations), and I will actually be paid 5% the earnings from one of the 8 rounds."",""True""]",35752,3468330,survey-multi-choice,A1SP4XA17LVUQI,3SLE99ER0ND8GQ2BDGS8ZX1PM52ZB3,11
308,"[True, True, True, True, True, True]","[""How many flights are there per round?"",""True or false: The hidden values will change each time I start a new round."",""How much does it cost to observe each hidden value?"",""How many hidden values am I allowed to observe in each round?"",""Which statement is TRUE?"",""True of false: The duration of the delay is proportional to how much more money I could have earned by planning and deciding better.""]","[""3"",""True"",""$0.10"",""As many or as few as I wish"",""My earnings for each round are equal to the <i>sum</i> of the values of all locations I visit (minus the cost of making observations), and I will actually be paid 5% the earnings from one of the 8 rounds."",""True""]",38055,3512537,survey-multi-choice,A1SP4XA17LVUQI,3SLE99ER0ND8GQ2BDGS8ZX1PM52ZB3,11
319,"[False, True, False, False, True, False]","[""How many flights are there per round?"",""True or false: The hidden values will change each time I start a new round."",""How much does it cost to observe each hidden value?"",""How many hidden values am I allowed to observe in each round?"",""Which statement is TRUE?"",""True of false: The duration of the delay is proportional to how much more money I could have earned by planning and deciding better.""]","[""1"",""True"",""$0.25"",""At most 5"",""My earnings for each round are equal to the <i>sum</i> of the values of all locations I visit (minus the cost of making observations), and I will actually be paid 5% the earnings from one of the 8 rounds."",""False""]",18460,86417,survey-multi-choice,A1XVZCQ983ETMR,345LHZDEDXSMRW4OS0EU0MOYWVAU3I,12
321,"[False, True, True, True, True, True]","[""How many flights are there per round?"",""True or false: The hidden values will change each time I start a new round."",""How much does it cost to observe each hidden value?"",""How many hidden values am I allowed to observe in each round?"",""Which statement is TRUE?"",""True of false: The duration of the delay is proportional to how much more money I could have earned by planning and deciding better.""]","[""1"",""True"",""$0.10"",""As many or as few as I wish"",""My earnings for each round are equal to the <i>sum</i> of the values of all locations I visit (minus the cost of making observations), and I will actually be paid 5% the earnings from one of the 8 rounds."",""True""]",96454,258429,survey-multi-choice,A1XVZCQ983ETMR,345LHZDEDXSMRW4OS0EU0MOYWVAU3I,12
323,"[False, True, True, True, True, True]","[""How many flights are there per round?"",""True or false: The hidden values will change each time I start a new round."",""How much does it cost to observe each hidden value?"",""How many hidden values am I allowed to observe in each round?"",""Which statement is TRUE?"",""True of false: The duration of the delay is proportional to how much more money I could have earned by planning and deciding better.""]","[""1"",""True"",""$0.10"",""As many or as few as I wish"",""My earnings for each round are equal to the <i>sum</i> of the values of all locations I visit (minus the cost of making observations), and I will actually be paid 5% the earnings from one of the 8 rounds."",""True""]",43004,541111,survey-multi-choice,A1XVZCQ983ETMR,345LHZDEDXSMRW4OS0EU0MOYWVAU3I,12
325,"[False, True, True, True, True, True]","[""How many flights are there per round?"",""True or false: The hidden values will change each time I start a new round."",""How much does it cost to observe each hidden value?"",""How many hidden values am I allowed to observe in each round?"",""Which statement is TRUE?"",""True of false: The duration of the delay is proportional to how much more money I could have earned by planning and deciding better.""]","[""2"",""True"",""$0.10"",""As many or as few as I wish"",""My earnings for each round are equal to the <i>sum</i> of the values of all locations I visit (minus the cost of making observations), and I will actually be paid 5% the earnings from one of the 8 rounds."",""True""]",11921,562280,survey-multi-choice,A1XVZCQ983ETMR,345LHZDEDXSMRW4OS0EU0MOYWVAU3I,12
327,"[False, True, True, True, True, False]","[""How many flights are there per round?"",""True or false: The hidden values will change each time I start a new round."",""How much does it cost to observe each hidden value?"",""How many hidden values am I allowed to observe in each round?"",""Which statement is TRUE?"",""True of false: The duration of the delay is proportional to how much more money I could have earned by planning and deciding better.""]","[""1"",""True"",""$0.10"",""As many or as few as I wish"",""My earnings for each round are equal to the <i>sum</i> of the values of all locations I visit (minus the cost of making observations), and I will actually be paid 5% the earnings from one of the 8 rounds."",""False""]",19323,635825,survey-multi-choice,A1XVZCQ983ETMR,345LHZDEDXSMRW4OS0EU0MOYWVAU3I,12
329,"[False, True, True, True, True, True]","[""How many flights are there per round?"",""True or false: The hidden values will change each time I start a new round."",""How much does it cost to observe each hidden value?"",""How many hidden values am I allowed to observe in each round?"",""Which statement is TRUE?"",""True of false: The duration of the delay is proportional to how much more money I could have earned by planning and deciding better.""]","[""4"",""True"",""$0.10"",""As many or as few as I wish"",""My earnings for each round are equal to the <i>sum</i> of the values of all locations I visit (minus the cost of making observations), and I will actually be paid 5% the earnings from one of the 8 rounds."",""True""]",15460,668775,survey-multi-choice,A1XVZCQ983ETMR,345LHZDEDXSMRW4OS0EU0MOYWVAU3I,12
331,"[False, True, True, True, False, True]","[""How many flights are there per round?"",""True or false: The hidden values will change each time I start a new round."",""How much does it cost to observe each hidden value?"",""How many hidden values am I allowed to observe in each round?"",""Which statement is TRUE?"",""True of false: The duration of the delay is proportional to how much more money I could have earned by planning and deciding better.""]","[""1"",""True"",""$0.10"",""As many or as few as I wish"",""My earnings for each round are equal to the value of one of the locations I visit (minus the cost of making observations), and I will actually be paid the earnings from one of the 8 rounds."",""True""]",32421,774941,survey-multi-choice,A1XVZCQ983ETMR,345LHZDEDXSMRW4OS0EU0MOYWVAU3I,12
333,"[False, True, True, True, True, True]","[""How many flights are there per round?"",""True or false: The hidden values will change each time I start a new round."",""How much does it cost to observe each hidden value?"",""How many hidden values am I allowed to observe in each round?"",""Which statement is TRUE?"",""True of false: The duration of the delay is proportional to how much more money I could have earned by planning and deciding better.""]","[""4"",""True"",""$0.10"",""As many or as few as I wish"",""My earnings for each round are equal to the <i>sum</i> of the values of all locations I visit (minus the cost of making observations), and I will actually be paid 5% the earnings from one of the 8 rounds."",""True""]",11810,803293,survey-multi-choice,A1XVZCQ983ETMR,345LHZDEDXSMRW4OS0EU0MOYWVAU3I,12
335,"[True, True, True, True, True, True]","[""How many flights are there per round?"",""True or false: The hidden values will change each time I start a new round."",""How much does it cost to observe each hidden value?"",""How many hidden values am I allowed to observe in each round?"",""Which statement is TRUE?"",""True of false: The duration of the delay is proportional to how much more money I could have earned by planning and deciding better.""]","[""3"",""True"",""$0.10"",""As many or as few as I wish"",""My earnings for each round are equal to the <i>sum</i> of the values of all locations I visit (minus the cost of making observations), and I will actually be paid 5% the earnings from one of the 8 rounds."",""True""]",15855,833379,survey-multi-choice,A1XVZCQ983ETMR,345LHZDEDXSMRW4OS0EU0MOYWVAU3I,12
346,"[False, True, True, True, True, True]","[""How many flights are there per round?"",""True or false: The hidden values will change each time I start a new round."",""How much does it cost to observe each hidden value?"",""How many hidden values am I allowed to observe in each round?"",""Which statement is TRUE?"",""True of false: The duration of the delay is proportional to how much more money I could have earned by planning and deciding better.""]","[""2"",""True"",""$0.10"",""As many or as few as I wish"",""My earnings for each round are equal to the <i>sum</i> of the values of all locations I visit (minus the cost of making observations), and I will actually be paid 5% the earnings from one of the 8 rounds."",""True""]",33611,154101,survey-multi-choice,A1ZB2NY0F9QNP0,3HMVI3QICJS7Y2AEFXX0FEFEUZ81YW,13
348,"[True, True, True, True, True, True]","[""How many flights are there per round?"",""True or false: The hidden values will change each time I start a new round."",""How much does it cost to observe each hidden value?"",""How many hidden values am I allowed to observe in each round?"",""Which statement is TRUE?"",""True of false: The duration of the delay is proportional to how much more money I could have earned by planning and deciding better.""]","[""3"",""True"",""$0.10"",""As many or as few as I wish"",""My earnings for each round are equal to the <i>sum</i> of the values of all locations I visit (minus the cost of making observations), and I will actually be paid 5% the earnings from one of the 8 rounds."",""True""]",27010,203572,survey-multi-choice,A1ZB2NY0F9QNP0,3HMVI3QICJS7Y2AEFXX0FEFEUZ81YW,13
359,"[False, True, True, True, True, True]","[""How many flights are there per round?"",""True or false: The hidden values will change each time I start a new round."",""How much does it cost to observe each hidden value?"",""How many hidden values am I allowed to observe in each round?"",""Which statement is TRUE?"",""True of false: The duration of the delay is proportional to how much more money I could have earned by planning and deciding better.""]","[""1"",""True"",""$0.10"",""As many or as few as I wish"",""My earnings for each round are equal to the <i>sum</i> of the values of all locations I visit (minus the cost of making observations), and I will actually be paid 5% the earnings from one of the 8 rounds."",""True""]",55622,310319,survey-multi-choice,A20NITCOBY4775,3J4Q2Z4UTY3RQ1ZVLB5RVI26R3ZWQM,14
361,"[False, True, True, True, True, True]","[""How many flights are there per round?"",""True or false: The hidden values will change each time I start a new round."",""How much does it cost to observe each hidden value?"",""How many hidden values am I allowed to observe in each round?"",""Which statement is TRUE?"",""True of false: The duration of the delay is proportional to how much more money I could have earned by planning and deciding better.""]","[""4"",""True"",""$0.10"",""As many or as few as I wish"",""My earnings for each round are equal to the <i>sum</i> of the values of all locations I visit (minus the cost of making observations), and I will actually be paid 5% the earnings from one of the 8 rounds."",""True""]",82942,519698,survey-multi-choice,A20NITCOBY4775,3J4Q2Z4UTY3RQ1ZVLB5RVI26R3ZWQM,14
363,"[False, True, True, True, True, True]","[""How many flights are there per round?"",""True or false: The hidden values will change each time I start a new round."",""How much does it cost to observe each hidden value?"",""How many hidden values am I allowed to observe in each round?"",""Which statement is TRUE?"",""True of false: The duration of the delay is proportional to how much more money I could have earned by planning and deciding better.""]","[""2"",""True"",""$0.10"",""As many or as few as I wish"",""My earnings for each round are equal to the <i>sum</i> of the values of all locations I visit (minus the cost of making observations), and I will actually be paid 5% the earnings from one of the 8 rounds."",""True""]",108651,685012,survey-multi-choice,A20NITCOBY4775,3J4Q2Z4UTY3RQ1ZVLB5RVI26R3ZWQM,14
365,"[True, True, True, True, True, True]","[""How many flights are there per round?"",""True or false: The hidden values will change each time I start a new round."",""How much does it cost to observe each hidden value?"",""How many hidden values am I allowed to observe in each round?"",""Which statement is TRUE?"",""True of false: The duration of the delay is proportional to how much more money I could have earned by planning and deciding better.""]","[""3"",""True"",""$0.10"",""As many or as few as I wish"",""My earnings for each round are equal to the <i>sum</i> of the values of all locations I visit (minus the cost of making observations), and I will actually be paid 5% the earnings from one of the 8 rounds."",""True""]",13058,772437,survey-multi-choice,A20NITCOBY4775,3J4Q2Z4UTY3RQ1ZVLB5RVI26R3ZWQM,14
376,"[False, True, True, True, False, True]","[""How many flights are there per round?"",""True or false: The hidden values will change each time I start a new round."",""How much does it cost to observe each hidden value?"",""How many hidden values am I allowed to observe in each round?"",""Which statement is TRUE?"",""True of false: The duration of the delay is proportional to how much more money I could have earned by planning and deciding better.""]","[""1"",""True"",""$0.10"",""As many or as few as I wish"",""My earnings for each round are equal to the value of one of the locations I visit (minus the cost of making observations), and I will actually be paid the earnings from one of the 8 rounds."",""True""]",126947,660618,survey-multi-choice,A21EZISIJ3JPSW,3I33IC7ZWF2DR5U7IVJYHB7CJEJ2A4,15
378,"[False, True, True, True, True, True]","[""How many flights are there per round?"",""True or false: The hidden values will change each time I start a new round."",""How much does it cost to observe each hidden value?"",""How many hidden values am I allowed to observe in each round?"",""Which statement is TRUE?"",""True of false: The duration of the delay is proportional to how much more money I could have earned by planning and deciding better.""]","[""1"",""True"",""$0.10"",""As many or as few as I wish"",""My earnings for each round are equal to the <i>sum</i> of the values of all locations I visit (minus the cost of making observations), and I will actually be paid 5% the earnings from one of the 8 rounds."",""True""]",114383,847663,survey-multi-choice,A21EZISIJ3JPSW,3I33IC7ZWF2DR5U7IVJYHB7CJEJ2A4,15
380,"[True, True, True, True, True, True]","[""How many flights are there per round?"",""True or false: The hidden values will change each time I start a new round."",""How much does it cost to observe each hidden value?"",""How many hidden values am I allowed to observe in each round?"",""Which statement is TRUE?"",""True of false: The duration of the delay is proportional to how much more money I could have earned by planning and deciding better.""]","[""3"",""True"",""$0.10"",""As many or as few as I wish"",""My earnings for each round are equal to the <i>sum</i> of the values of all locations I visit (minus the cost of making observations), and I will actually be paid 5% the earnings from one of the 8 rounds."",""True""]",21381,886872,survey-multi-choice,A21EZISIJ3JPSW,3I33IC7ZWF2DR5U7IVJYHB7CJEJ2A4,15
