,correct,questions,responses,rt,time_elapsed,trial_type,worker_id,assignment_id,pid
1,"[False, True, True, True, True]","[""How many flights are taken per round?"",""True or false: The hidden values will change each time I start a new round."",""How much does it cost to observe each hidden value?"",""How many hidden values am I allowed to observe in each round?"",""Which statement is TRUE?""]","[""1"",""True"",""$0.05"",""As many or as few as I wish"",""My earning for each round is equal to the <i>sum</i> of the values of all locations I visit (minus the cost of making observations), and I will be paid the earnings from one of the 20 rounds.""]",32021,72502,survey-multi-choice,A18TCR555RWUZV,3TXD01ZLD4H79SNSSEJDARG374V4UF,0
3,"[False, True, True, True, True]","[""How many flights are taken per round?"",""True or false: The hidden values will change each time I start a new round."",""How much does it cost to observe each hidden value?"",""How many hidden values am I allowed to observe in each round?"",""Which statement is TRUE?""]","[""4"",""True"",""$0.05"",""As many or as few as I wish"",""My earning for each round is equal to the <i>sum</i> of the values of all locations I visit (minus the cost of making observations), and I will be paid the earnings from one of the 20 rounds.""]",25887,211814,survey-multi-choice,A18TCR555RWUZV,3TXD01ZLD4H79SNSSEJDARG374V4UF,0
5,"[True, True, True, True, True]","[""How many flights are taken per round?"",""True or false: The hidden values will change each time I start a new round."",""How much does it cost to observe each hidden value?"",""How many hidden values am I allowed to observe in each round?"",""Which statement is TRUE?""]","[""3"",""True"",""$0.05"",""As many or as few as I wish"",""My earning for each round is equal to the <i>sum</i> of the values of all locations I visit (minus the cost of making observations), and I will be paid the earnings from one of the 20 rounds.""]",17477,238079,survey-multi-choice,A18TCR555RWUZV,3TXD01ZLD4H79SNSSEJDARG374V4UF,0
28,"[False, True, True, True, True]","[""How many flights are taken per round?"",""True or false: The hidden values will change each time I start a new round."",""How much does it cost to observe each hidden value?"",""How many hidden values am I allowed to observe in each round?"",""Which statement is TRUE?""]","[""1"",""True"",""$0.05"",""As many or as few as I wish"",""My earning for each round is equal to the <i>sum</i> of the values of all locations I visit (minus the cost of making observations), and I will be paid the earnings from one of the 20 rounds.""]",132646,266764,survey-multi-choice,A1945USNZHTROX,3OJSZ2ATDSWN70FWTB9C5R8XZQY75S,1
30,"[True, True, True, True, True]","[""How many flights are taken per round?"",""True or false: The hidden values will change each time I start a new round."",""How much does it cost to observe each hidden value?"",""How many hidden values am I allowed to observe in each round?"",""Which statement is TRUE?""]","[""3"",""True"",""$0.05"",""As many or as few as I wish"",""My earning for each round is equal to the <i>sum</i> of the values of all locations I visit (minus the cost of making observations), and I will be paid the earnings from one of the 20 rounds.""]",21455,293209,survey-multi-choice,A1945USNZHTROX,3OJSZ2ATDSWN70FWTB9C5R8XZQY75S,1
53,"[False, True, True, True, True]","[""How many flights are taken per round?"",""True or false: The hidden values will change each time I start a new round."",""How much does it cost to observe each hidden value?"",""How many hidden values am I allowed to observe in each round?"",""Which statement is TRUE?""]","[""4"",""True"",""$0.05"",""As many or as few as I wish"",""My earning for each round is equal to the <i>sum</i> of the values of all locations I visit (minus the cost of making observations), and I will be paid the earnings from one of the 20 rounds.""]",46818,127140,survey-multi-choice,A1CH3TODZNQCES,3IX2EGZR7BJ5WIEWRRBCBII2I3NJRP,2
55,"[True, True, True, True, True]","[""How many flights are taken per round?"",""True or false: The hidden values will change each time I start a new round."",""How much does it cost to observe each hidden value?"",""How many hidden values am I allowed to observe in each round?"",""Which statement is TRUE?""]","[""3"",""True"",""$0.05"",""As many or as few as I wish"",""My earning for each round is equal to the <i>sum</i> of the values of all locations I visit (minus the cost of making observations), and I will be paid the earnings from one of the 20 rounds.""]",18126,247791,survey-multi-choice,A1CH3TODZNQCES,3IX2EGZR7BJ5WIEWRRBCBII2I3NJRP,2
78,"[False, True, True, True, False]","[""How many flights are taken per round?"",""True or false: The hidden values will change each time I start a new round."",""How much does it cost to observe each hidden value?"",""How many hidden values am I allowed to observe in each round?"",""Which statement is TRUE?""]","[""1"",""True"",""$0.05"",""As many or as few as I wish"",""My earning for each round is equal to the value of one of the locations I vist (minus the cost of making observations), and I will actually be paid the earnings from one of the 20 rounds.""]",24459,82773,survey-multi-choice,A1HWB810RJBV2K,3SLE99ER0ND8GQ2BDGS8ZX1OJFXBZP,3
80,"[False, True, True, True, True]","[""How many flights are taken per round?"",""True or false: The hidden values will change each time I start a new round."",""How much does it cost to observe each hidden value?"",""How many hidden values am I allowed to observe in each round?"",""Which statement is TRUE?""]","[""1"",""True"",""$0.05"",""As many or as few as I wish"",""My earning for each round is equal to the <i>sum</i> of the values of all locations I visit (minus the cost of making observations), and I will be paid the earnings from one of the 20 rounds.""]",34691,182940,survey-multi-choice,A1HWB810RJBV2K,3SLE99ER0ND8GQ2BDGS8ZX1OJFXBZP,3
82,"[False, True, True, True, True]","[""How many flights are taken per round?"",""True or false: The hidden values will change each time I start a new round."",""How much does it cost to observe each hidden value?"",""How many hidden values am I allowed to observe in each round?"",""Which statement is TRUE?""]","[""2"",""True"",""$0.05"",""As many or as few as I wish"",""My earning for each round is equal to the <i>sum</i> of the values of all locations I visit (minus the cost of making observations), and I will be paid the earnings from one of the 20 rounds.""]",11594,232373,survey-multi-choice,A1HWB810RJBV2K,3SLE99ER0ND8GQ2BDGS8ZX1OJFXBZP,3
84,"[False, False, True, False, False]","[""How many flights are taken per round?"",""True or false: The hidden values will change each time I start a new round."",""How much does it cost to observe each hidden value?"",""How many hidden values am I allowed to observe in each round?"",""Which statement is TRUE?""]","[""2"",""False"",""$0.05"",""At most 10"",""My earning for each round is equal to the value of one of the locations I vist (minus the cost of making observations), and I will actually be paid the earnings from one of the 20 rounds.""]",13181,280293,survey-multi-choice,A1HWB810RJBV2K,3SLE99ER0ND8GQ2BDGS8ZX1OJFXBZP,3
86,"[False, True, True, True, False]","[""How many flights are taken per round?"",""True or false: The hidden values will change each time I start a new round."",""How much does it cost to observe each hidden value?"",""How many hidden values am I allowed to observe in each round?"",""Which statement is TRUE?""]","[""2"",""True"",""$0.05"",""As many or as few as I wish"",""My earning for each round is equal to the value of one of the locations I vist (minus the cost of making observations), and I will actually be paid the earnings from one of the 20 rounds.""]",199318,532369,survey-multi-choice,A1HWB810RJBV2K,3SLE99ER0ND8GQ2BDGS8ZX1OJFXBZP,3
88,"[False, True, True, False, False]","[""How many flights are taken per round?"",""True or false: The hidden values will change each time I start a new round."",""How much does it cost to observe each hidden value?"",""How many hidden values am I allowed to observe in each round?"",""Which statement is TRUE?""]","[""1"",""True"",""$0.05"",""At most 15"",""My earning for each round is equal to the value of one of the locations I vist (minus the cost of making observations), and I will actually be paid the earnings from one of the 20 rounds.""]",107451,647214,survey-multi-choice,A1HWB810RJBV2K,3SLE99ER0ND8GQ2BDGS8ZX1OJFXBZP,3
90,"[False, True, True, False, False]","[""How many flights are taken per round?"",""True or false: The hidden values will change each time I start a new round."",""How much does it cost to observe each hidden value?"",""How many hidden values am I allowed to observe in each round?"",""Which statement is TRUE?""]","[""1"",""True"",""$0.05"",""At most 1"",""My earning for each round is equal to the value of one of the locations I vist (minus the cost of making observations), and I will actually be paid the earnings from one of the 20 rounds.""]",77728,731816,survey-multi-choice,A1HWB810RJBV2K,3SLE99ER0ND8GQ2BDGS8ZX1OJFXBZP,3
92,"[False, True, True, True, False]","[""How many flights are taken per round?"",""True or false: The hidden values will change each time I start a new round."",""How much does it cost to observe each hidden value?"",""How many hidden values am I allowed to observe in each round?"",""Which statement is TRUE?""]","[""1"",""True"",""$0.05"",""As many or as few as I wish"",""My earning for each round is equal to the value of one of the locations I vist (minus the cost of making observations), and I will actually be paid the earnings from one of the 20 rounds.""]",67878,806147,survey-multi-choice,A1HWB810RJBV2K,3SLE99ER0ND8GQ2BDGS8ZX1OJFXBZP,3
94,"[False, True, True, True, True]","[""How many flights are taken per round?"",""True or false: The hidden values will change each time I start a new round."",""How much does it cost to observe each hidden value?"",""How many hidden values am I allowed to observe in each round?"",""Which statement is TRUE?""]","[""1"",""True"",""$0.05"",""As many or as few as I wish"",""My earning for each round is equal to the <i>sum</i> of the values of all locations I visit (minus the cost of making observations), and I will be paid the earnings from one of the 20 rounds.""]",143796,955562,survey-multi-choice,A1HWB810RJBV2K,3SLE99ER0ND8GQ2BDGS8ZX1OJFXBZP,3
96,"[False, True, False, True, False]","[""How many flights are taken per round?"",""True or false: The hidden values will change each time I start a new round."",""How much does it cost to observe each hidden value?"",""How many hidden values am I allowed to observe in each round?"",""Which statement is TRUE?""]","[""1"",""True"",""$0.00"",""As many or as few as I wish"",""My earning for each round is equal to the value of one of the locations I vist (minus the cost of making observations), and I will actually be paid the earnings from one of the 20 rounds.""]",23498,985406,survey-multi-choice,A1HWB810RJBV2K,3SLE99ER0ND8GQ2BDGS8ZX1OJFXBZP,3
98,"[False, True, False, False, False]","[""How many flights are taken per round?"",""True or false: The hidden values will change each time I start a new round."",""How much does it cost to observe each hidden value?"",""How many hidden values am I allowed to observe in each round?"",""Which statement is TRUE?""]","[""1"",""True"",""$0.00"",""At most 15"",""My earning for each round is equal to the value of one of the locations I vist (minus the cost of making observations), and I will actually be paid the earnings from one of the 20 rounds.""]",12679,1003564,survey-multi-choice,A1HWB810RJBV2K,3SLE99ER0ND8GQ2BDGS8ZX1OJFXBZP,3
100,"[False, True, False, False, False]","[""How many flights are taken per round?"",""True or false: The hidden values will change each time I start a new round."",""How much does it cost to observe each hidden value?"",""How many hidden values am I allowed to observe in each round?"",""Which statement is TRUE?""]","[""1"",""True"",""$0.00"",""At most 5"",""My earning for each round is equal to the value of one of the locations I vist (minus the cost of making observations), and I will actually be paid the earnings from one of the 20 rounds.""]",95943,1105468,survey-multi-choice,A1HWB810RJBV2K,3SLE99ER0ND8GQ2BDGS8ZX1OJFXBZP,3
102,"[True, True, True, True, True]","[""How many flights are taken per round?"",""True or false: The hidden values will change each time I start a new round."",""How much does it cost to observe each hidden value?"",""How many hidden values am I allowed to observe in each round?"",""Which statement is TRUE?""]","[""3"",""True"",""$0.05"",""As many or as few as I wish"",""My earning for each round is equal to the <i>sum</i> of the values of all locations I visit (minus the cost of making observations), and I will be paid the earnings from one of the 20 rounds.""]",204392,1314265,survey-multi-choice,A1HWB810RJBV2K,3SLE99ER0ND8GQ2BDGS8ZX1OJFXBZP,3
125,"[True, True, True, True, True]","[""How many flights are taken per round?"",""True or false: The hidden values will change each time I start a new round."",""How much does it cost to observe each hidden value?"",""How many hidden values am I allowed to observe in each round?"",""Which statement is TRUE?""]","[""3"",""True"",""$0.05"",""As many or as few as I wish"",""My earning for each round is equal to the <i>sum</i> of the values of all locations I visit (minus the cost of making observations), and I will be paid the earnings from one of the 20 rounds.""]",43833,111989,survey-multi-choice,A1PTH9KTRO06EG,3NOKK93PR188CYNZRKGLFV6RY61EEM,4
148,"[False, True, True, True, True]","[""How many flights are taken per round?"",""True or false: The hidden values will change each time I start a new round."",""How much does it cost to observe each hidden value?"",""How many hidden values am I allowed to observe in each round?"",""Which statement is TRUE?""]","[""1"",""True"",""$0.05"",""As many or as few as I wish"",""My earning for each round is equal to the <i>sum</i> of the values of all locations I visit (minus the cost of making observations), and I will be paid the earnings from one of the 20 rounds.""]",47775,496607,survey-multi-choice,A1YVMDRR9W1LZ1,3XUHV3NRVKYK0PL86KVOW4XRDTUH54,5
150,"[False, True, True, True, True]","[""How many flights are taken per round?"",""True or false: The hidden values will change each time I start a new round."",""How much does it cost to observe each hidden value?"",""How many hidden values am I allowed to observe in each round?"",""Which statement is TRUE?""]","[""2"",""True"",""$0.05"",""As many or as few as I wish"",""My earning for each round is equal to the <i>sum</i> of the values of all locations I visit (minus the cost of making observations), and I will be paid the earnings from one of the 20 rounds.""]",25841,622752,survey-multi-choice,A1YVMDRR9W1LZ1,3XUHV3NRVKYK0PL86KVOW4XRDTUH54,5
152,"[True, True, True, True, True]","[""How many flights are taken per round?"",""True or false: The hidden values will change each time I start a new round."",""How much does it cost to observe each hidden value?"",""How many hidden values am I allowed to observe in each round?"",""Which statement is TRUE?""]","[""3"",""True"",""$0.05"",""As many or as few as I wish"",""My earning for each round is equal to the <i>sum</i> of the values of all locations I visit (minus the cost of making observations), and I will be paid the earnings from one of the 20 rounds.""]",75285,780681,survey-multi-choice,A1YVMDRR9W1LZ1,3XUHV3NRVKYK0PL86KVOW4XRDTUH54,5
175,"[False, True, True, True, True]","[""How many flights are taken per round?"",""True or false: The hidden values will change each time I start a new round."",""How much does it cost to observe each hidden value?"",""How many hidden values am I allowed to observe in each round?"",""Which statement is TRUE?""]","[""2"",""True"",""$0.05"",""As many or as few as I wish"",""My earning for each round is equal to the <i>sum</i> of the values of all locations I visit (minus the cost of making observations), and I will be paid the earnings from one of the 20 rounds.""]",44205,219998,survey-multi-choice,A25YG9M911WA3T,3VP0C6EFSGW2B7MX20L6GFJNQA4M6Y,6
177,"[False, True, True, True, True]","[""How many flights are taken per round?"",""True or false: The hidden values will change each time I start a new round."",""How much does it cost to observe each hidden value?"",""How many hidden values am I allowed to observe in each round?"",""Which statement is TRUE?""]","[""1"",""True"",""$0.05"",""As many or as few as I wish"",""My earning for each round is equal to the <i>sum</i> of the values of all locations I visit (minus the cost of making observations), and I will be paid the earnings from one of the 20 rounds.""]",22925,288981,survey-multi-choice,A25YG9M911WA3T,3VP0C6EFSGW2B7MX20L6GFJNQA4M6Y,6
179,"[False, True, True, False, True]","[""How many flights are taken per round?"",""True or false: The hidden values will change each time I start a new round."",""How much does it cost to observe each hidden value?"",""How many hidden values am I allowed to observe in each round?"",""Which statement is TRUE?""]","[""1"",""True"",""$0.05"",""At most 15"",""My earning for each round is equal to the <i>sum</i> of the values of all locations I visit (minus the cost of making observations), and I will be paid the earnings from one of the 20 rounds.""]",33602,371732,survey-multi-choice,A25YG9M911WA3T,3VP0C6EFSGW2B7MX20L6GFJNQA4M6Y,6
181,"[False, True, True, True, True]","[""How many flights are taken per round?"",""True or false: The hidden values will change each time I start a new round."",""How much does it cost to observe each hidden value?"",""How many hidden values am I allowed to observe in each round?"",""Which statement is TRUE?""]","[""1"",""True"",""$0.05"",""As many or as few as I wish"",""My earning for each round is equal to the <i>sum</i> of the values of all locations I visit (minus the cost of making observations), and I will be paid the earnings from one of the 20 rounds.""]",41149,448406,survey-multi-choice,A25YG9M911WA3T,3VP0C6EFSGW2B7MX20L6GFJNQA4M6Y,6
183,"[False, True, True, True, False]","[""How many flights are taken per round?"",""True or false: The hidden values will change each time I start a new round."",""How much does it cost to observe each hidden value?"",""How many hidden values am I allowed to observe in each round?"",""Which statement is TRUE?""]","[""1"",""True"",""$0.05"",""As many or as few as I wish"",""My earning for each round is equal to the value of one of the locations I vist (minus the cost of making observations), and I will actually be paid the earnings from one of the 20 rounds.""]",30681,501805,survey-multi-choice,A25YG9M911WA3T,3VP0C6EFSGW2B7MX20L6GFJNQA4M6Y,6
185,"[False, True, True, True, True]","[""How many flights are taken per round?"",""True or false: The hidden values will change each time I start a new round."",""How much does it cost to observe each hidden value?"",""How many hidden values am I allowed to observe in each round?"",""Which statement is TRUE?""]","[""4"",""True"",""$0.05"",""As many or as few as I wish"",""My earning for each round is equal to the <i>sum</i> of the values of all locations I visit (minus the cost of making observations), and I will be paid the earnings from one of the 20 rounds.""]",67483,647684,survey-multi-choice,A25YG9M911WA3T,3VP0C6EFSGW2B7MX20L6GFJNQA4M6Y,6
187,"[False, True, True, True, False]","[""How many flights are taken per round?"",""True or false: The hidden values will change each time I start a new round."",""How much does it cost to observe each hidden value?"",""How many hidden values am I allowed to observe in each round?"",""Which statement is TRUE?""]","[""1"",""True"",""$0.05"",""As many or as few as I wish"",""My earning for each round is equal to the value of one of the locations I vist (minus the cost of making observations), and I will actually be paid the earnings from one of the 20 rounds.""]",14936,668403,survey-multi-choice,A25YG9M911WA3T,3VP0C6EFSGW2B7MX20L6GFJNQA4M6Y,6
189,"[True, True, True, True, True]","[""How many flights are taken per round?"",""True or false: The hidden values will change each time I start a new round."",""How much does it cost to observe each hidden value?"",""How many hidden values am I allowed to observe in each round?"",""Which statement is TRUE?""]","[""3"",""True"",""$0.05"",""As many or as few as I wish"",""My earning for each round is equal to the <i>sum</i> of the values of all locations I visit (minus the cost of making observations), and I will be paid the earnings from one of the 20 rounds.""]",32556,765924,survey-multi-choice,A25YG9M911WA3T,3VP0C6EFSGW2B7MX20L6GFJNQA4M6Y,6
212,"[False, False, True, True, True]","[""How many flights are taken per round?"",""True or false: The hidden values will change each time I start a new round."",""How much does it cost to observe each hidden value?"",""How many hidden values am I allowed to observe in each round?"",""Which statement is TRUE?""]","[""1"",""False"",""$0.05"",""As many or as few as I wish"",""My earning for each round is equal to the <i>sum</i> of the values of all locations I visit (minus the cost of making observations), and I will be paid the earnings from one of the 20 rounds.""]",229200,355117,survey-multi-choice,A28FMRMS9TMEOZ,3483FV8BEEJC43I4SI2M165PK4H26F,7
214,"[False, True, True, True, True]","[""How many flights are taken per round?"",""True or false: The hidden values will change each time I start a new round."",""How much does it cost to observe each hidden value?"",""How many hidden values am I allowed to observe in each round?"",""Which statement is TRUE?""]","[""1"",""True"",""$0.05"",""As many or as few as I wish"",""My earning for each round is equal to the <i>sum</i> of the values of all locations I visit (minus the cost of making observations), and I will be paid the earnings from one of the 20 rounds.""]",106150,469808,survey-multi-choice,A28FMRMS9TMEOZ,3483FV8BEEJC43I4SI2M165PK4H26F,7
216,"[True, True, True, True, True]","[""How many flights are taken per round?"",""True or false: The hidden values will change each time I start a new round."",""How much does it cost to observe each hidden value?"",""How many hidden values am I allowed to observe in each round?"",""Which statement is TRUE?""]","[""3"",""True"",""$0.05"",""As many or as few as I wish"",""My earning for each round is equal to the <i>sum</i> of the values of all locations I visit (minus the cost of making observations), and I will be paid the earnings from one of the 20 rounds.""]",203482,694466,survey-multi-choice,A28FMRMS9TMEOZ,3483FV8BEEJC43I4SI2M165PK4H26F,7
239,"[True, True, True, True, True]","[""How many flights are taken per round?"",""True or false: The hidden values will change each time I start a new round."",""How much does it cost to observe each hidden value?"",""How many hidden values am I allowed to observe in each round?"",""Which statement is TRUE?""]","[""3"",""True"",""$0.05"",""As many or as few as I wish"",""My earning for each round is equal to the <i>sum</i> of the values of all locations I visit (minus the cost of making observations), and I will be paid the earnings from one of the 20 rounds.""]",45127,49124,survey-multi-choice,A2E9NUZZ4S2VJ9,3YJ6NA41JBGKK5YHEZ7N6NINHLZJPX,8
262,"[False, True, True, True, True]","[""How many flights are taken per round?"",""True or false: The hidden values will change each time I start a new round."",""How much does it cost to observe each hidden value?"",""How many hidden values am I allowed to observe in each round?"",""Which statement is TRUE?""]","[""4"",""True"",""$0.05"",""As many or as few as I wish"",""My earning for each round is equal to the <i>sum</i> of the values of all locations I visit (minus the cost of making observations), and I will be paid the earnings from one of the 20 rounds.""]",52298,210068,survey-multi-choice,A2MCG5W6LHSRG9,3JC6VJ2SABJ5Q2DU0ELWFIAN0Y45AH,9
264,"[True, True, True, True, True]","[""How many flights are taken per round?"",""True or false: The hidden values will change each time I start a new round."",""How much does it cost to observe each hidden value?"",""How many hidden values am I allowed to observe in each round?"",""Which statement is TRUE?""]","[""3"",""True"",""$0.05"",""As many or as few as I wish"",""My earning for each round is equal to the <i>sum</i> of the values of all locations I visit (minus the cost of making observations), and I will be paid the earnings from one of the 20 rounds.""]",32126,262928,survey-multi-choice,A2MCG5W6LHSRG9,3JC6VJ2SABJ5Q2DU0ELWFIAN0Y45AH,9
287,"[True, True, True, True, True]","[""How many flights are taken per round?"",""True or false: The hidden values will change each time I start a new round."",""How much does it cost to observe each hidden value?"",""How many hidden values am I allowed to observe in each round?"",""Which statement is TRUE?""]","[""3"",""True"",""$0.05"",""As many or as few as I wish"",""My earning for each round is equal to the <i>sum</i> of the values of all locations I visit (minus the cost of making observations), and I will be paid the earnings from one of the 20 rounds.""]",88155,156404,survey-multi-choice,A2NA2OJT15COZY,3Q5ZZ9ZEVOFR7EKF3G1IJR4SAA458D,10
310,"[False, False, True, True, True]","[""How many flights are taken per round?"",""True or false: The hidden values will change each time I start a new round."",""How much does it cost to observe each hidden value?"",""How many hidden values am I allowed to observe in each round?"",""Which statement is TRUE?""]","[""4"",""False"",""$0.05"",""As many or as few as I wish"",""My earning for each round is equal to the <i>sum</i> of the values of all locations I visit (minus the cost of making observations), and I will be paid the earnings from one of the 20 rounds.""]",54466,224138,survey-multi-choice,A2VRDE2FHCBMF8,38F5OAUN5NCZNTZRUDALUOBN4ZPH7J,11
312,"[True, True, True, True, True]","[""How many flights are taken per round?"",""True or false: The hidden values will change each time I start a new round."",""How much does it cost to observe each hidden value?"",""How many hidden values am I allowed to observe in each round?"",""Which statement is TRUE?""]","[""3"",""True"",""$0.05"",""As many or as few as I wish"",""My earning for each round is equal to the <i>sum</i> of the values of all locations I visit (minus the cost of making observations), and I will be paid the earnings from one of the 20 rounds.""]",19265,303739,survey-multi-choice,A2VRDE2FHCBMF8,38F5OAUN5NCZNTZRUDALUOBN4ZPH7J,11
335,"[False, True, True, True, False]","[""How many flights are taken per round?"",""True or false: The hidden values will change each time I start a new round."",""How much does it cost to observe each hidden value?"",""How many hidden values am I allowed to observe in each round?"",""Which statement is TRUE?""]","[""2"",""True"",""$0.05"",""As many or as few as I wish"",""My earning for each round is equal to the value of one of the locations I vist (minus the cost of making observations), and I will actually be paid the earnings from one of the 20 rounds.""]",196641,591688,survey-multi-choice,A2XNO2KWLLGW6Z,39KFRKBFINVSUUHFLZVBRASLKKCOYF,12
337,"[False, True, True, True, False]","[""How many flights are taken per round?"",""True or false: The hidden values will change each time I start a new round."",""How much does it cost to observe each hidden value?"",""How many hidden values am I allowed to observe in each round?"",""Which statement is TRUE?""]","[""1"",""True"",""$0.05"",""As many or as few as I wish"",""My earning for each round is equal to the value of one of the locations I vist (minus the cost of making observations), and I will actually be paid the earnings from one of the 20 rounds.""]",81672,679638,survey-multi-choice,A2XNO2KWLLGW6Z,39KFRKBFINVSUUHFLZVBRASLKKCOYF,12
339,"[False, True, True, True, False]","[""How many flights are taken per round?"",""True or false: The hidden values will change each time I start a new round."",""How much does it cost to observe each hidden value?"",""How many hidden values am I allowed to observe in each round?"",""Which statement is TRUE?""]","[""4"",""True"",""$0.05"",""As many or as few as I wish"",""My earning for each round is equal to the value of one of the locations I vist (minus the cost of making observations), and I will actually be paid the earnings from one of the 20 rounds.""]",15269,711930,survey-multi-choice,A2XNO2KWLLGW6Z,39KFRKBFINVSUUHFLZVBRASLKKCOYF,12
341,"[False, True, True, True, True]","[""How many flights are taken per round?"",""True or false: The hidden values will change each time I start a new round."",""How much does it cost to observe each hidden value?"",""How many hidden values am I allowed to observe in each round?"",""Which statement is TRUE?""]","[""4"",""True"",""$0.05"",""As many or as few as I wish"",""My earning for each round is equal to the <i>sum</i> of the values of all locations I visit (minus the cost of making observations), and I will be paid the earnings from one of the 20 rounds.""]",39215,783370,survey-multi-choice,A2XNO2KWLLGW6Z,39KFRKBFINVSUUHFLZVBRASLKKCOYF,12
343,"[True, True, True, True, False]","[""How many flights are taken per round?"",""True or false: The hidden values will change each time I start a new round."",""How much does it cost to observe each hidden value?"",""How many hidden values am I allowed to observe in each round?"",""Which statement is TRUE?""]","[""3"",""True"",""$0.05"",""As many or as few as I wish"",""My earning for each round is equal to the value of one of the locations I vist (minus the cost of making observations), and I will actually be paid the earnings from one of the 20 rounds.""]",12273,802261,survey-multi-choice,A2XNO2KWLLGW6Z,39KFRKBFINVSUUHFLZVBRASLKKCOYF,12
345,"[False, True, True, True, False]","[""How many flights are taken per round?"",""True or false: The hidden values will change each time I start a new round."",""How much does it cost to observe each hidden value?"",""How many hidden values am I allowed to observe in each round?"",""Which statement is TRUE?""]","[""1"",""True"",""$0.05"",""As many or as few as I wish"",""My earning for each round is equal to the value of one of the locations I vist (minus the cost of making observations), and I will actually be paid the earnings from one of the 20 rounds.""]",16819,825211,survey-multi-choice,A2XNO2KWLLGW6Z,39KFRKBFINVSUUHFLZVBRASLKKCOYF,12
347,"[False, True, True, True, False]","[""How many flights are taken per round?"",""True or false: The hidden values will change each time I start a new round."",""How much does it cost to observe each hidden value?"",""How many hidden values am I allowed to observe in each round?"",""Which statement is TRUE?""]","[""2"",""True"",""$0.05"",""As many or as few as I wish"",""My earning for each round is equal to the value of one of the locations I vist (minus the cost of making observations), and I will actually be paid the earnings from one of the 20 rounds.""]",8037,847343,survey-multi-choice,A2XNO2KWLLGW6Z,39KFRKBFINVSUUHFLZVBRASLKKCOYF,12
349,"[False, True, True, True, True]","[""How many flights are taken per round?"",""True or false: The hidden values will change each time I start a new round."",""How much does it cost to observe each hidden value?"",""How many hidden values am I allowed to observe in each round?"",""Which statement is TRUE?""]","[""2"",""True"",""$0.05"",""As many or as few as I wish"",""My earning for each round is equal to the <i>sum</i> of the values of all locations I visit (minus the cost of making observations), and I will be paid the earnings from one of the 20 rounds.""]",13018,878603,survey-multi-choice,A2XNO2KWLLGW6Z,39KFRKBFINVSUUHFLZVBRASLKKCOYF,12
351,"[False, True, True, False, False]","[""How many flights are taken per round?"",""True or false: The hidden values will change each time I start a new round."",""How much does it cost to observe each hidden value?"",""How many hidden values am I allowed to observe in each round?"",""Which statement is TRUE?""]","[""1"",""True"",""$0.05"",""At most 15"",""My earning for each round is equal to the value of one of the locations I visit (minus the cost of making observations), but these earnings aren't real money.""]",9084,899701,survey-multi-choice,A2XNO2KWLLGW6Z,39KFRKBFINVSUUHFLZVBRASLKKCOYF,12
353,"[False, True, True, True, False]","[""How many flights are taken per round?"",""True or false: The hidden values will change each time I start a new round."",""How much does it cost to observe each hidden value?"",""How many hidden values am I allowed to observe in each round?"",""Which statement is TRUE?""]","[""4"",""True"",""$0.05"",""As many or as few as I wish"",""My earning for each round is equal to the value of one of the locations I visit (minus the cost of making observations), but these earnings aren't real money.""]",66146,975441,survey-multi-choice,A2XNO2KWLLGW6Z,39KFRKBFINVSUUHFLZVBRASLKKCOYF,12
355,"[False, True, True, True, False]","[""How many flights are taken per round?"",""True or false: The hidden values will change each time I start a new round."",""How much does it cost to observe each hidden value?"",""How many hidden values am I allowed to observe in each round?"",""Which statement is TRUE?""]","[""2"",""True"",""$0.05"",""As many or as few as I wish"",""My earning for each round is equal to the value of one of the locations I vist (minus the cost of making observations), and I will actually be paid the earnings from one of the 20 rounds.""]",8220,990779,survey-multi-choice,A2XNO2KWLLGW6Z,39KFRKBFINVSUUHFLZVBRASLKKCOYF,12
357,"[False, True, True, True, False]","[""How many flights are taken per round?"",""True or false: The hidden values will change each time I start a new round."",""How much does it cost to observe each hidden value?"",""How many hidden values am I allowed to observe in each round?"",""Which statement is TRUE?""]","[""4"",""True"",""$0.05"",""As many or as few as I wish"",""My earning for each round is equal to the <i>sum</i> of the values of all locations I visit (minus the cost of making observations), but these earnings aren't real money.""]",25181,1032552,survey-multi-choice,A2XNO2KWLLGW6Z,39KFRKBFINVSUUHFLZVBRASLKKCOYF,12
359,"[True, True, True, True, True]","[""How many flights are taken per round?"",""True or false: The hidden values will change each time I start a new round."",""How much does it cost to observe each hidden value?"",""How many hidden values am I allowed to observe in each round?"",""Which statement is TRUE?""]","[""3"",""True"",""$0.05"",""As many or as few as I wish"",""My earning for each round is equal to the <i>sum</i> of the values of all locations I visit (minus the cost of making observations), and I will be paid the earnings from one of the 20 rounds.""]",33911,1071880,survey-multi-choice,A2XNO2KWLLGW6Z,39KFRKBFINVSUUHFLZVBRASLKKCOYF,12
382,"[False, True, True, True, True]","[""How many flights are taken per round?"",""True or false: The hidden values will change each time I start a new round."",""How much does it cost to observe each hidden value?"",""How many hidden values am I allowed to observe in each round?"",""Which statement is TRUE?""]","[""1"",""True"",""$0.05"",""As many or as few as I wish"",""My earning for each round is equal to the <i>sum</i> of the values of all locations I visit (minus the cost of making observations), and I will be paid the earnings from one of the 20 rounds.""]",48746,145363,survey-multi-choice,A32QJF67JMJFKX,326O153BMIY3KS9ZVP519DO6YU0EDT,13
384,"[False, True, True, True, True]","[""How many flights are taken per round?"",""True or false: The hidden values will change each time I start a new round."",""How much does it cost to observe each hidden value?"",""How many hidden values am I allowed to observe in each round?"",""Which statement is TRUE?""]","[""4"",""True"",""$0.05"",""As many or as few as I wish"",""My earning for each round is equal to the <i>sum</i> of the values of all locations I visit (minus the cost of making observations), and I will be paid the earnings from one of the 20 rounds.""]",49025,257313,survey-multi-choice,A32QJF67JMJFKX,326O153BMIY3KS9ZVP519DO6YU0EDT,13
386,"[True, True, True, True, True]","[""How many flights are taken per round?"",""True or false: The hidden values will change each time I start a new round."",""How much does it cost to observe each hidden value?"",""How many hidden values am I allowed to observe in each round?"",""Which statement is TRUE?""]","[""3"",""True"",""$0.05"",""As many or as few as I wish"",""My earning for each round is equal to the <i>sum</i> of the values of all locations I visit (minus the cost of making observations), and I will be paid the earnings from one of the 20 rounds.""]",16890,323954,survey-multi-choice,A32QJF67JMJFKX,326O153BMIY3KS9ZVP519DO6YU0EDT,13
409,"[False, True, True, True, False]","[""How many flights are taken per round?"",""True or false: The hidden values will change each time I start a new round."",""How much does it cost to observe each hidden value?"",""How many hidden values am I allowed to observe in each round?"",""Which statement is TRUE?""]","[""2"",""True"",""$0.05"",""As many or as few as I wish"",""My earning for each round is equal to the <i>sum</i> of the values of all locations I visit (minus the cost of making observations), but these earnings aren't real money.""]",42761,200849,survey-multi-choice,A3AO2N7BNFDGF3,3NGI5ARFTT5DPOIDOA1H2NM1N4ZP1Z,14
411,"[False, True, True, True, False]","[""How many flights are taken per round?"",""True or false: The hidden values will change each time I start a new round."",""How much does it cost to observe each hidden value?"",""How many hidden values am I allowed to observe in each round?"",""Which statement is TRUE?""]","[""2"",""True"",""$0.05"",""As many or as few as I wish"",""My earning for each round is equal to the value of one of the locations I visit (minus the cost of making observations), but these earnings aren't real money.""]",31140,254007,survey-multi-choice,A3AO2N7BNFDGF3,3NGI5ARFTT5DPOIDOA1H2NM1N4ZP1Z,14
413,"[False, True, True, True, True]","[""How many flights are taken per round?"",""True or false: The hidden values will change each time I start a new round."",""How much does it cost to observe each hidden value?"",""How many hidden values am I allowed to observe in each round?"",""Which statement is TRUE?""]","[""2"",""True"",""$0.05"",""As many or as few as I wish"",""My earning for each round is equal to the <i>sum</i> of the values of all locations I visit (minus the cost of making observations), and I will be paid the earnings from one of the 20 rounds.""]",44468,336422,survey-multi-choice,A3AO2N7BNFDGF3,3NGI5ARFTT5DPOIDOA1H2NM1N4ZP1Z,14
415,"[False, True, True, True, False]","[""How many flights are taken per round?"",""True or false: The hidden values will change each time I start a new round."",""How much does it cost to observe each hidden value?"",""How many hidden values am I allowed to observe in each round?"",""Which statement is TRUE?""]","[""2"",""True"",""$0.05"",""As many or as few as I wish"",""My earning for each round is equal to the value of one of the locations I vist (minus the cost of making observations), and I will actually be paid the earnings from one of the 20 rounds.""]",8177,352741,survey-multi-choice,A3AO2N7BNFDGF3,3NGI5ARFTT5DPOIDOA1H2NM1N4ZP1Z,14
417,"[False, True, True, True, True]","[""How many flights are taken per round?"",""True or false: The hidden values will change each time I start a new round."",""How much does it cost to observe each hidden value?"",""How many hidden values am I allowed to observe in each round?"",""Which statement is TRUE?""]","[""4"",""True"",""$0.05"",""As many or as few as I wish"",""My earning for each round is equal to the <i>sum</i> of the values of all locations I visit (minus the cost of making observations), and I will be paid the earnings from one of the 20 rounds.""]",28645,399928,survey-multi-choice,A3AO2N7BNFDGF3,3NGI5ARFTT5DPOIDOA1H2NM1N4ZP1Z,14
419,"[False, True, True, False, True]","[""How many flights are taken per round?"",""True or false: The hidden values will change each time I start a new round."",""How much does it cost to observe each hidden value?"",""How many hidden values am I allowed to observe in each round?"",""Which statement is TRUE?""]","[""2"",""True"",""$0.05"",""At most 15"",""My earning for each round is equal to the <i>sum</i> of the values of all locations I visit (minus the cost of making observations), and I will be paid the earnings from one of the 20 rounds.""]",32981,457539,survey-multi-choice,A3AO2N7BNFDGF3,3NGI5ARFTT5DPOIDOA1H2NM1N4ZP1Z,14
421,"[True, True, True, True, True]","[""How many flights are taken per round?"",""True or false: The hidden values will change each time I start a new round."",""How much does it cost to observe each hidden value?"",""How many hidden values am I allowed to observe in each round?"",""Which statement is TRUE?""]","[""3"",""True"",""$0.05"",""As many or as few as I wish"",""My earning for each round is equal to the <i>sum</i> of the values of all locations I visit (minus the cost of making observations), and I will be paid the earnings from one of the 20 rounds.""]",9158,502633,survey-multi-choice,A3AO2N7BNFDGF3,3NGI5ARFTT5DPOIDOA1H2NM1N4ZP1Z,14
444,"[False, True, True, True, False]","[""How many flights are taken per round?"",""True or false: The hidden values will change each time I start a new round."",""How much does it cost to observe each hidden value?"",""How many hidden values am I allowed to observe in each round?"",""Which statement is TRUE?""]","[""4"",""True"",""$0.05"",""As many or as few as I wish"",""My earning for each round is equal to the value of one of the locations I vist (minus the cost of making observations), and I will actually be paid the earnings from one of the 20 rounds.""]",21287,101495,survey-multi-choice,A3G00Q5JV2BE5G,3CCZ6YKWR7JRLJ3P887WJNZ3UGM592,15
446,"[False, True, True, True, True]","[""How many flights are taken per round?"",""True or false: The hidden values will change each time I start a new round."",""How much does it cost to observe each hidden value?"",""How many hidden values am I allowed to observe in each round?"",""Which statement is TRUE?""]","[""4"",""True"",""$0.05"",""As many or as few as I wish"",""My earning for each round is equal to the <i>sum</i> of the values of all locations I visit (minus the cost of making observations), and I will be paid the earnings from one of the 20 rounds.""]",20695,130811,survey-multi-choice,A3G00Q5JV2BE5G,3CCZ6YKWR7JRLJ3P887WJNZ3UGM592,15
448,"[True, True, True, True, True]","[""How many flights are taken per round?"",""True or false: The hidden values will change each time I start a new round."",""How much does it cost to observe each hidden value?"",""How many hidden values am I allowed to observe in each round?"",""Which statement is TRUE?""]","[""3"",""True"",""$0.05"",""As many or as few as I wish"",""My earning for each round is equal to the <i>sum</i> of the values of all locations I visit (minus the cost of making observations), and I will be paid the earnings from one of the 20 rounds.""]",12891,172674,survey-multi-choice,A3G00Q5JV2BE5G,3CCZ6YKWR7JRLJ3P887WJNZ3UGM592,15
471,"[True, True, True, True, False]","[""How many flights are taken per round?"",""True or false: The hidden values will change each time I start a new round."",""How much does it cost to observe each hidden value?"",""How many hidden values am I allowed to observe in each round?"",""Which statement is TRUE?""]","[""3"",""True"",""$0.05"",""As many or as few as I wish"",""My earning for each round is equal to the value of one of the locations I vist (minus the cost of making observations), and I will actually be paid the earnings from one of the 20 rounds.""]",92244,146238,survey-multi-choice,A3GPTSDDHJ2DBV,3HUTX6F6VUN2T9O8SEOGI6RG55H2OC,16
473,"[False, True, True, True, False]","[""How many flights are taken per round?"",""True or false: The hidden values will change each time I start a new round."",""How much does it cost to observe each hidden value?"",""How many hidden values am I allowed to observe in each round?"",""Which statement is TRUE?""]","[""2"",""True"",""$0.05"",""As many or as few as I wish"",""My earning for each round is equal to the value of one of the locations I vist (minus the cost of making observations), and I will actually be paid the earnings from one of the 20 rounds.""]",10536,191411,survey-multi-choice,A3GPTSDDHJ2DBV,3HUTX6F6VUN2T9O8SEOGI6RG55H2OC,16
475,"[False, True, True, True, True]","[""How many flights are taken per round?"",""True or false: The hidden values will change each time I start a new round."",""How much does it cost to observe each hidden value?"",""How many hidden values am I allowed to observe in each round?"",""Which statement is TRUE?""]","[""2"",""True"",""$0.05"",""As many or as few as I wish"",""My earning for each round is equal to the <i>sum</i> of the values of all locations I visit (minus the cost of making observations), and I will be paid the earnings from one of the 20 rounds.""]",8486,259702,survey-multi-choice,A3GPTSDDHJ2DBV,3HUTX6F6VUN2T9O8SEOGI6RG55H2OC,16
477,"[True, True, True, True, True]","[""How many flights are taken per round?"",""True or false: The hidden values will change each time I start a new round."",""How much does it cost to observe each hidden value?"",""How many hidden values am I allowed to observe in each round?"",""Which statement is TRUE?""]","[""3"",""True"",""$0.05"",""As many or as few as I wish"",""My earning for each round is equal to the <i>sum</i> of the values of all locations I visit (minus the cost of making observations), and I will be paid the earnings from one of the 20 rounds.""]",8627,273303,survey-multi-choice,A3GPTSDDHJ2DBV,3HUTX6F6VUN2T9O8SEOGI6RG55H2OC,16
500,"[True, True, True, True, True]","[""How many flights are taken per round?"",""True or false: The hidden values will change each time I start a new round."",""How much does it cost to observe each hidden value?"",""How many hidden values am I allowed to observe in each round?"",""Which statement is TRUE?""]","[""3"",""True"",""$0.05"",""As many or as few as I wish"",""My earning for each round is equal to the <i>sum</i> of the values of all locations I visit (minus the cost of making observations), and I will be paid the earnings from one of the 20 rounds.""]",66212,190388,survey-multi-choice,A3KX8PBHVFQZ3U,3QAPZX2QN4DHQSWPQTM5S5VY71V02C,17
523,"[False, True, True, True, True]","[""How many flights are taken per round?"",""True or false: The hidden values will change each time I start a new round."",""How much does it cost to observe each hidden value?"",""How many hidden values am I allowed to observe in each round?"",""Which statement is TRUE?""]","[""1"",""True"",""$0.05"",""As many or as few as I wish"",""My earning for each round is equal to the <i>sum</i> of the values of all locations I visit (minus the cost of making observations), and I will be paid the earnings from one of the 20 rounds.""]",148184,194690,survey-multi-choice,A4J4GGMKJ68L0,34HJIJKLP5W7M7CSX4TI6DIMLB44V4,18
525,"[False, True, True, True, True]","[""How many flights are taken per round?"",""True or false: The hidden values will change each time I start a new round."",""How much does it cost to observe each hidden value?"",""How many hidden values am I allowed to observe in each round?"",""Which statement is TRUE?""]","[""2"",""True"",""$0.05"",""As many or as few as I wish"",""My earning for each round is equal to the <i>sum</i> of the values of all locations I visit (minus the cost of making observations), and I will be paid the earnings from one of the 20 rounds.""]",21391,223234,survey-multi-choice,A4J4GGMKJ68L0,34HJIJKLP5W7M7CSX4TI6DIMLB44V4,18
527,"[False, True, True, True, False]","[""How many flights are taken per round?"",""True or false: The hidden values will change each time I start a new round."",""How much does it cost to observe each hidden value?"",""How many hidden values am I allowed to observe in each round?"",""Which statement is TRUE?""]","[""1"",""True"",""$0.05"",""As many or as few as I wish"",""My earning for each round is equal to the value of one of the locations I vist (minus the cost of making observations), and I will actually be paid the earnings from one of the 20 rounds.""]",66031,302473,survey-multi-choice,A4J4GGMKJ68L0,34HJIJKLP5W7M7CSX4TI6DIMLB44V4,18
529,"[False, True, True, True, True]","[""How many flights are taken per round?"",""True or false: The hidden values will change each time I start a new round."",""How much does it cost to observe each hidden value?"",""How many hidden values am I allowed to observe in each round?"",""Which statement is TRUE?""]","[""1"",""True"",""$0.05"",""As many or as few as I wish"",""My earning for each round is equal to the <i>sum</i> of the values of all locations I visit (minus the cost of making observations), and I will be paid the earnings from one of the 20 rounds.""]",12710,321978,survey-multi-choice,A4J4GGMKJ68L0,34HJIJKLP5W7M7CSX4TI6DIMLB44V4,18
531,"[True, True, True, True, False]","[""How many flights are taken per round?"",""True or false: The hidden values will change each time I start a new round."",""How much does it cost to observe each hidden value?"",""How many hidden values am I allowed to observe in each round?"",""Which statement is TRUE?""]","[""3"",""True"",""$0.05"",""As many or as few as I wish"",""My earning for each round is equal to the <i>sum</i> of the values of all locations I visit (minus the cost of making observations), but these earnings aren't real money.""]",75826,402394,survey-multi-choice,A4J4GGMKJ68L0,34HJIJKLP5W7M7CSX4TI6DIMLB44V4,18
533,"[False, True, True, True, True]","[""How many flights are taken per round?"",""True or false: The hidden values will change each time I start a new round."",""How much does it cost to observe each hidden value?"",""How many hidden values am I allowed to observe in each round?"",""Which statement is TRUE?""]","[""2"",""True"",""$0.05"",""As many or as few as I wish"",""My earning for each round is equal to the <i>sum</i> of the values of all locations I visit (minus the cost of making observations), and I will be paid the earnings from one of the 20 rounds.""]",23049,436505,survey-multi-choice,A4J4GGMKJ68L0,34HJIJKLP5W7M7CSX4TI6DIMLB44V4,18
535,"[True, True, True, True, True]","[""How many flights are taken per round?"",""True or false: The hidden values will change each time I start a new round."",""How much does it cost to observe each hidden value?"",""How many hidden values am I allowed to observe in each round?"",""Which statement is TRUE?""]","[""3"",""True"",""$0.05"",""As many or as few as I wish"",""My earning for each round is equal to the <i>sum</i> of the values of all locations I visit (minus the cost of making observations), and I will be paid the earnings from one of the 20 rounds.""]",385565,996406,survey-multi-choice,A4J4GGMKJ68L0,34HJIJKLP5W7M7CSX4TI6DIMLB44V4,18
558,"[True, True, True, True, True]","[""How many flights are taken per round?"",""True or false: The hidden values will change each time I start a new round."",""How much does it cost to observe each hidden value?"",""How many hidden values am I allowed to observe in each round?"",""Which statement is TRUE?""]","[""3"",""True"",""$0.05"",""As many or as few as I wish"",""My earning for each round is equal to the <i>sum</i> of the values of all locations I visit (minus the cost of making observations), and I will be paid the earnings from one of the 20 rounds.""]",29771,239193,survey-multi-choice,ACNPJ7WXOGX5M,3W8CV64QJ2Z31CNK9A858K2TZPD9HN,19
581,"[False, True, True, True, True]","[""How many flights are taken per round?"",""True or false: The hidden values will change each time I start a new round."",""How much does it cost to observe each hidden value?"",""How many hidden values am I allowed to observe in each round?"",""Which statement is TRUE?""]","[""1"",""True"",""$0.05"",""As many or as few as I wish"",""My earning for each round is equal to the <i>sum</i> of the values of all locations I visit (minus the cost of making observations), and I will be paid the earnings from one of the 20 rounds.""]",27126,109194,survey-multi-choice,AD7CUW86FWEKT,3OJSZ2ATDSWN70FWTB9C5R8XZQY57Q,20
583,"[False, True, True, True, False]","[""How many flights are taken per round?"",""True or false: The hidden values will change each time I start a new round."",""How much does it cost to observe each hidden value?"",""How many hidden values am I allowed to observe in each round?"",""Which statement is TRUE?""]","[""1"",""True"",""$0.05"",""As many or as few as I wish"",""My earning for each round is equal to the value of one of the locations I vist (minus the cost of making observations), and I will actually be paid the earnings from one of the 20 rounds.""]",26034,175652,survey-multi-choice,AD7CUW86FWEKT,3OJSZ2ATDSWN70FWTB9C5R8XZQY57Q,20
585,"[False, True, True, True, True]","[""How many flights are taken per round?"",""True or false: The hidden values will change each time I start a new round."",""How much does it cost to observe each hidden value?"",""How many hidden values am I allowed to observe in each round?"",""Which statement is TRUE?""]","[""2"",""True"",""$0.05"",""As many or as few as I wish"",""My earning for each round is equal to the <i>sum</i> of the values of all locations I visit (minus the cost of making observations), and I will be paid the earnings from one of the 20 rounds.""]",11133,202872,survey-multi-choice,AD7CUW86FWEKT,3OJSZ2ATDSWN70FWTB9C5R8XZQY57Q,20
587,"[False, True, True, False, True]","[""How many flights are taken per round?"",""True or false: The hidden values will change each time I start a new round."",""How much does it cost to observe each hidden value?"",""How many hidden values am I allowed to observe in each round?"",""Which statement is TRUE?""]","[""2"",""True"",""$0.05"",""At most 15"",""My earning for each round is equal to the <i>sum</i> of the values of all locations I visit (minus the cost of making observations), and I will be paid the earnings from one of the 20 rounds.""]",20883,256486,survey-multi-choice,AD7CUW86FWEKT,3OJSZ2ATDSWN70FWTB9C5R8XZQY57Q,20
589,"[True, True, True, True, True]","[""How many flights are taken per round?"",""True or false: The hidden values will change each time I start a new round."",""How much does it cost to observe each hidden value?"",""How many hidden values am I allowed to observe in each round?"",""Which statement is TRUE?""]","[""3"",""True"",""$0.05"",""As many or as few as I wish"",""My earning for each round is equal to the <i>sum</i> of the values of all locations I visit (minus the cost of making observations), and I will be paid the earnings from one of the 20 rounds.""]",9491,300966,survey-multi-choice,AD7CUW86FWEKT,3OJSZ2ATDSWN70FWTB9C5R8XZQY57Q,20
612,"[False, True, True, True, True]","[""How many flights are taken per round?"",""True or false: The hidden values will change each time I start a new round."",""How much does it cost to observe each hidden value?"",""How many hidden values am I allowed to observe in each round?"",""Which statement is TRUE?""]","[""1"",""True"",""$0.05"",""As many or as few as I wish"",""My earning for each round is equal to the <i>sum</i> of the values of all locations I visit (minus the cost of making observations), and I will be paid the earnings from one of the 20 rounds.""]",413939,819693,survey-multi-choice,AUI3R928P63B0,3Z4GS9HPNVA2U4TFH4O93BMTQWT777,21
614,"[False, True, True, True, True]","[""How many flights are taken per round?"",""True or false: The hidden values will change each time I start a new round."",""How much does it cost to observe each hidden value?"",""How many hidden values am I allowed to observe in each round?"",""Which statement is TRUE?""]","[""2"",""True"",""$0.05"",""As many or as few as I wish"",""My earning for each round is equal to the <i>sum</i> of the values of all locations I visit (minus the cost of making observations), and I will be paid the earnings from one of the 20 rounds.""]",347118,1373520,survey-multi-choice,AUI3R928P63B0,3Z4GS9HPNVA2U4TFH4O93BMTQWT777,21
616,"[False, True, True, True, False]","[""How many flights are taken per round?"",""True or false: The hidden values will change each time I start a new round."",""How much does it cost to observe each hidden value?"",""How many hidden values am I allowed to observe in each round?"",""Which statement is TRUE?""]","[""1"",""True"",""$0.05"",""As many or as few as I wish"",""My earning for each round is equal to the value of one of the locations I vist (minus the cost of making observations), and I will actually be paid the earnings from one of the 20 rounds.""]",102478,1893930,survey-multi-choice,AUI3R928P63B0,3Z4GS9HPNVA2U4TFH4O93BMTQWT777,21
618,"[True, True, True, True, True]","[""How many flights are taken per round?"",""True or false: The hidden values will change each time I start a new round."",""How much does it cost to observe each hidden value?"",""How many hidden values am I allowed to observe in each round?"",""Which statement is TRUE?""]","[""3"",""True"",""$0.05"",""As many or as few as I wish"",""My earning for each round is equal to the <i>sum</i> of the values of all locations I visit (minus the cost of making observations), and I will be paid the earnings from one of the 20 rounds.""]",50100,2046967,survey-multi-choice,AUI3R928P63B0,3Z4GS9HPNVA2U4TFH4O93BMTQWT777,21
