A13XXMDHOULEZ7:3VSOLARPKB9O74GLUPJ34Q1KJA3939,0,1493616823387,"{""rt"": 392058, ""trial_type"": ""instructions"", ""view_history"": ""[{\""page_index\"":0,\""viewing_time\"":99024},{\""page_index\"":1,\""viewing_time\"":155753},{\""page_index\"":2,\""viewing_time\"":50166},{\""page_index\"":3,\""viewing_time\"":87113}]"", ""internal_node_id"": ""0.0-0.0-0.0"", ""time_elapsed"": 392059, ""trial_index"": 0}"
A13XXMDHOULEZ7:3VSOLARPKB9O74GLUPJ34Q1KJA3939,1,1493616881925,"{""rt"": 52533, ""trial_type"": ""survey-multi-choice"", ""responses"": ""[\""2\"",\""True\"",\""$0.10\"",\""As many or as few as I wish\"",\""My earnings for each round are equal to the <i>sum</i> of the values of all locations I visit (minus the cost of making observations), and I will actually be paid 5% the earnings from one of the 8 rounds.\"",\""True\""]"", ""internal_node_id"": ""0.0-0.0-1.0"", ""time_elapsed"": 450598, ""questions"": ""[\""How many flights are there per round?\"",\""True or false: The hidden values will change each time I start a new round.\"",\""How much does it cost to observe each hidden value?\"",\""How many hidden values am I allowed to observe in each round?\"",\""Which statement is TRUE?\"",\""True of false: The duration of the delay is proportional to how much more money I could have earned by planning and deciding better.\""]"", ""correct"": [false, true, true, true, true, true], ""trial_index"": 1}"
A13XXMDHOULEZ7:3VSOLARPKB9O74GLUPJ34Q1KJA3939,2,1493616930944,"{""rt"": 48016, ""trial_type"": ""instructions"", ""view_history"": ""[{\""page_index\"":0,\""viewing_time\"":31213},{\""page_index\"":1,\""viewing_time\"":3052},{\""page_index\"":2,\""viewing_time\"":7990},{\""page_index\"":3,\""viewing_time\"":5759}]"", ""internal_node_id"": ""0.0-0.1-0.1"", ""time_elapsed"": 499617, ""trial_index"": 2}"
A13XXMDHOULEZ7:3VSOLARPKB9O74GLUPJ34Q1KJA3939,3,1493616980386,"{""rt"": 43664, ""trial_type"": ""survey-multi-choice"", ""responses"": ""[\""2\"",\""True\"",\""$0.10\"",\""As many or as few as I wish\"",\""My earnings for each round are equal to the <i>sum</i> of the values of all locations I visit (minus the cost of making observations), but these earnings aren't real money.\"",\""False\""]"", ""internal_node_id"": ""0.0-0.1-1.1"", ""time_elapsed"": 549059, ""questions"": ""[\""How many flights are there per round?\"",\""True or false: The hidden values will change each time I start a new round.\"",\""How much does it cost to observe each hidden value?\"",\""How many hidden values am I allowed to observe in each round?\"",\""Which statement is TRUE?\"",\""True of false: The duration of the delay is proportional to how much more money I could have earned by planning and deciding better.\""]"", ""correct"": [false, true, true, true, false, false], ""trial_index"": 3}"
A13XXMDHOULEZ7:3VSOLARPKB9O74GLUPJ34Q1KJA3939,4,1493617003788,"{""rt"": 21947, ""trial_type"": ""instructions"", ""view_history"": ""[{\""page_index\"":0,\""viewing_time\"":6600},{\""page_index\"":1,\""viewing_time\"":11608},{\""page_index\"":2,\""viewing_time\"":1945},{\""page_index\"":3,\""viewing_time\"":1793}]"", ""internal_node_id"": ""0.0-0.2-0.2"", ""time_elapsed"": 572460, ""trial_index"": 4}"
A13XXMDHOULEZ7:3VSOLARPKB9O74GLUPJ34Q1KJA3939,5,1493617030362,"{""rt"": 25513, ""trial_type"": ""survey-multi-choice"", ""responses"": ""[\""3\"",\""True\"",\""$0.10\"",\""As many or as few as I wish\"",\""My earnings for each round are equal to the <i>sum</i> of the values of all locations I visit (minus the cost of making observations), and I will actually be paid 5% the earnings from one of the 8 rounds.\"",\""True\""]"", ""internal_node_id"": ""0.0-0.2-1.2"", ""time_elapsed"": 599034, ""questions"": ""[\""How many flights are there per round?\"",\""True or false: The hidden values will change each time I start a new round.\"",\""How much does it cost to observe each hidden value?\"",\""How many hidden values am I allowed to observe in each round?\"",\""Which statement is TRUE?\"",\""True of false: The duration of the delay is proportional to how much more money I could have earned by planning and deciding better.\""]"", ""correct"": [true, true, true, true, true, true], ""trial_index"": 5}"
A13XXMDHOULEZ7:3VSOLARPKB9O74GLUPJ34Q1KJA3939,6,1493617122585,"{""rt"": [79216, 2, 1509], ""trial_type"": ""graph"", ""infoCost"": 0.1, ""feedback"": true, ""minTime"": 45, ""delays"": [-4, -4, -4], ""actionTimes"": [79217, 80245, 82690], ""time_elapsed"": 691257, ""actions"": [""left"", ""left"", ""up""], ""trialIndex"": 1, ""score"": 32.8, ""trial_index"": 6, ""internal_node_id"": ""0.0-1.0-0.0"", ""clickTimes"": [44048, 48166, 53238, 56293, 57621, 59325, 60781, 63021, 65308, 66522, 69742, 75861], ""path"": [1, 4, 8, 14], ""trialID"": 5, ""clicks"": [""4"", ""8"", ""14"", ""15"", ""2"", ""7"", ""5"", ""9"", ""10"", ""11"", ""13"", ""16""], ""condition"": 4}"
A13XXMDHOULEZ7:3VSOLARPKB9O74GLUPJ34Q1KJA3939,7,1493617171947,"{""rt"": [37579, 226, 292], ""trial_type"": ""graph"", ""infoCost"": 0.1, ""feedback"": true, ""minTime"": 45, ""delays"": [-4, -4, -4], ""actionTimes"": [37579, 38515, 39711], ""time_elapsed"": 740618, ""actions"": [""up"", ""up"", ""left""], ""trialIndex"": 2, ""score"": 35.6, ""trial_index"": 7, ""internal_node_id"": ""0.0-1.0-1.0"", ""clickTimes"": [7077, 9125, 10435, 11333, 14727, 16384, 17429, 19637, 20773, 21878, 23709, 25293, 26725, 28262], ""path"": [1, 3, 7, 12], ""trialID"": 6, ""clicks"": [""4"", ""8"", ""14"", ""15"", ""3"", ""7"", ""12"", ""13"", ""10"", ""11"", ""2"", ""17"", ""16"", ""5""], ""condition"": 4}"
A13XXMDHOULEZ7:3VSOLARPKB9O74GLUPJ34Q1KJA3939,8,1493617231896,"{""rt"": [54411, 311, 466], ""trial_type"": ""graph"", ""infoCost"": 0.1, ""feedback"": true, ""minTime"": 45, ""delays"": [-4, -4, -4], ""actionTimes"": [54411, 55260, 56617], ""time_elapsed"": 800567, ""actions"": [""right"", ""right"", ""up""], ""trialIndex"": 3, ""score"": 20.4, ""trial_index"": 8, ""internal_node_id"": ""0.0-1.0-2.0"", ""clickTimes"": [2083, 4185, 5090, 6466, 7921, 9145, 9993, 12889, 13746, 15579, 16545, 17879, 21376, 22633, 25720, 29391], ""path"": [1, 2, 6, 10], ""trialID"": 7, ""clicks"": [""4"", ""8"", ""14"", ""15"", ""7"", ""13"", ""12"", ""10"", ""11"", ""17"", ""16"", ""5"", ""9"", ""2"", ""6"", ""3""], ""condition"": 4}"
A13XXMDHOULEZ7:3VSOLARPKB9O74GLUPJ34Q1KJA3939,9,1493617279515,"{""rt"": [29389, 299, 6527], ""trial_type"": ""graph"", ""infoCost"": 0.1, ""feedback"": true, ""minTime"": 45, ""delays"": [-4, -4, -4], ""actionTimes"": [29389, 30424, 37889], ""time_elapsed"": 848187, ""actions"": [""down"", ""down"", ""left""], ""trialIndex"": 4, ""score"": 44.7, ""trial_index"": 9, ""internal_node_id"": ""0.0-1.0-3.0"", ""clickTimes"": [3738, 5010, 6802, 7848, 9249, 10209, 12713, 13625, 16800, 17961, 19634, 21841, 27257], ""path"": [1, 5, 9, 16], ""trialID"": 1, ""clicks"": [""15"", ""14"", ""8"", ""4"", ""12"", ""13"", ""10"", ""11"", ""17"", ""16"", ""5"", ""9"", ""2""], ""condition"": 4}"
A13XXMDHOULEZ7:3VSOLARPKB9O74GLUPJ34Q1KJA3939,10,1493617327540,"{""rt"": [40253, 237, 1710], ""trial_type"": ""graph"", ""infoCost"": 0.1, ""feedback"": true, ""minTime"": 45, ""delays"": [-4, -4, -4], ""actionTimes"": [40253, 41212, 43834], ""time_elapsed"": 896212, ""actions"": [""down"", ""down"", ""right""], ""trialIndex"": 5, ""score"": 40.6, ""trial_index"": 10, ""internal_node_id"": ""0.0-1.0-4.0"", ""clickTimes"": [12512, 13908, 15357, 16180, 16900, 17621, 19956, 21116, 24430, 25953, 30315, 31512, 35853, 37660], ""path"": [1, 5, 9, 17], ""trialID"": 4, ""clicks"": [""12"", ""13"", ""14"", ""15"", ""16"", ""17"", ""11"", ""10"", ""2"", ""6"", ""5"", ""9"", ""3"", ""7""], ""condition"": 4}"
A13XXMDHOULEZ7:3VSOLARPKB9O74GLUPJ34Q1KJA3939,11,1493617399570,"{""rt"": [66537, 167, 314], ""trial_type"": ""graph"", ""infoCost"": 0.1, ""feedback"": true, ""minTime"": 45, ""delays"": [-4, -4, -4], ""actionTimes"": [66538, 67392, 68615], ""time_elapsed"": 968242, ""actions"": [""right"", ""right"", ""up""], ""trialIndex"": 6, ""score"": 32.6, ""trial_index"": 11, ""internal_node_id"": ""0.0-1.0-5.0"", ""clickTimes"": [8178, 9154, 11994, 13295, 14118, 15433, 16561, 17545, 22892, 23855, 25329, 26297, 29874, 30682], ""path"": [1, 2, 6, 10], ""trialID"": 3, ""clicks"": [""15"", ""14"", ""12"", ""13"", ""10"", ""11"", ""17"", ""16"", ""4"", ""8"", ""6"", ""2"", ""3"", ""7""], ""condition"": 4}"
A13XXMDHOULEZ7:3VSOLARPKB9O74GLUPJ34Q1KJA3939,12,1493617470625,"{""rt"": [64700, 2, 906], ""trial_type"": ""graph"", ""infoCost"": 0.1, ""feedback"": true, ""minTime"": 45, ""delays"": [-4, -4, -4], ""actionTimes"": [64701, 65381, 67169], ""time_elapsed"": 1039295, ""actions"": [""right"", ""right"", ""up""], ""trialIndex"": 7, ""score"": 32.6, ""trial_index"": 12, ""internal_node_id"": ""0.0-1.0-6.0"", ""clickTimes"": [3300, 4573, 5775, 6997, 8669, 10287, 11293, 12689, 23117, 26851, 27828, 31196, 32180, 50204], ""path"": [1, 2, 6, 10], ""trialID"": 2, ""clicks"": [""15"", ""14"", ""12"", ""13"", ""10"", ""11"", ""17"", ""16"", ""3"", ""6"", ""2"", ""5"", ""9"", ""7""], ""condition"": 4}"
A13XXMDHOULEZ7:3VSOLARPKB9O74GLUPJ34Q1KJA3939,13,1493617518862,"{""rt"": [38102, 86, 1819], ""trial_type"": ""graph"", ""infoCost"": 0.1, ""feedback"": true, ""minTime"": 45, ""delays"": [-4, -4, -4], ""actionTimes"": [38102, 38860, 41612], ""time_elapsed"": 1087535, ""actions"": [""left"", ""left"", ""down""], ""trialIndex"": 8, ""score"": 38.6, ""trial_index"": 13, ""internal_node_id"": ""0.0-1.0-7.0"", ""clickTimes"": [5641, 6569, 7617, 8554, 9923, 11105, 11939, 12960, 14417, 15613, 17744, 18601, 21974, 24159], ""path"": [1, 4, 8, 15], ""trialID"": 0, ""clicks"": [""14"", ""15"", ""12"", ""13"", ""10"", ""11"", ""17"", ""16"", ""8"", ""4"", ""6"", ""2"", ""7"", ""3""], ""condition"": 4}"
A13XXMDHOULEZ7:3VSOLARPKB9O74GLUPJ34Q1KJA3939,14,1493617705145,"{""rt"": 185240, ""trial_type"": ""button-response"", ""button_pressed"": 0, ""stimulus"": ""<h1 id=\""thiscompletesthehit\"">This completes the HIT</h1>\n\n<p>One or your trials has been randomly selected and we will pay you 5% of your profit on that trial as a bonus. You will be awarded a bonus of $2.03</p>"", ""internal_node_id"": ""0.0-2.0"", ""time_elapsed"": 1273817, ""trial_index"": 14}"
A154X03NKVZZL1:33FOTY3KEMLUVZ99J5FBINNVRBQC1Z,0,1493607482114,"{""rt"": 314301, ""trial_type"": ""instructions"", ""view_history"": ""[{\""page_index\"":0,\""viewing_time\"":14929},{\""page_index\"":1,\""viewing_time\"":265450},{\""page_index\"":2,\""viewing_time\"":14778},{\""page_index\"":3,\""viewing_time\"":19142}]"", ""internal_node_id"": ""0.0-0.0-0.0"", ""time_elapsed"": 314302, ""trial_index"": 0}"
A154X03NKVZZL1:33FOTY3KEMLUVZ99J5FBINNVRBQC1Z,1,1493607531605,"{""rt"": 46569, ""trial_type"": ""survey-multi-choice"", ""responses"": ""[\""1\"",\""True\"",\""$0.00\"",\""As many or as few as I wish\"",\""My earnings for each round are equal to the <i>sum</i> of the values of all locations I visit (minus the cost of making observations), and I will actually be paid 5% the earnings from one of the 8 rounds.\"",\""False\""]"", ""internal_node_id"": ""0.0-0.0-1.0"", ""time_elapsed"": 363794, ""questions"": ""[\""How many flights are there per round?\"",\""True or false: The hidden values will change each time I start a new round.\"",\""How much does it cost to observe each hidden value?\"",\""How many hidden values am I allowed to observe in each round?\"",\""Which statement is TRUE?\"",\""True of false: The duration of the delay is proportional to how much more money I could have earned by planning and deciding better.\""]"", ""correct"": [false, true, false, true, true, false], ""trial_index"": 1}"
A154X03NKVZZL1:33FOTY3KEMLUVZ99J5FBINNVRBQC1Z,2,1493607605747,"{""rt"": 73136, ""trial_type"": ""instructions"", ""view_history"": ""[{\""page_index\"":0,\""viewing_time\"":33388},{\""page_index\"":1,\""viewing_time\"":26869},{\""page_index\"":2,\""viewing_time\"":7791},{\""page_index\"":3,\""viewing_time\"":5086}]"", ""internal_node_id"": ""0.0-0.1-0.1"", ""time_elapsed"": 437936, ""trial_index"": 2}"
A154X03NKVZZL1:33FOTY3KEMLUVZ99J5FBINNVRBQC1Z,3,1493607637237,"{""rt"": 28547, ""trial_type"": ""survey-multi-choice"", ""responses"": ""[\""1\"",\""True\"",\""$0.10\"",\""As many or as few as I wish\"",\""My earnings for each round are equal to the <i>sum</i> of the values of all locations I visit (minus the cost of making observations), and I will actually be paid 5% the earnings from one of the 8 rounds.\"",\""True\""]"", ""internal_node_id"": ""0.0-0.1-1.1"", ""time_elapsed"": 469425, ""questions"": ""[\""How many flights are there per round?\"",\""True or false: The hidden values will change each time I start a new round.\"",\""How much does it cost to observe each hidden value?\"",\""How many hidden values am I allowed to observe in each round?\"",\""Which statement is TRUE?\"",\""True of false: The duration of the delay is proportional to how much more money I could have earned by planning and deciding better.\""]"", ""correct"": [false, true, true, true, true, true], ""trial_index"": 3}"
A154X03NKVZZL1:33FOTY3KEMLUVZ99J5FBINNVRBQC1Z,4,1493607645373,"{""rt"": 7127, ""trial_type"": ""instructions"", ""view_history"": ""[{\""page_index\"":0,\""viewing_time\"":4357},{\""page_index\"":1,\""viewing_time\"":958},{\""page_index\"":2,\""viewing_time\"":823},{\""page_index\"":3,\""viewing_time\"":988}]"", ""internal_node_id"": ""0.0-0.2-0.2"", ""time_elapsed"": 477562, ""trial_index"": 4}"
A154X03NKVZZL1:33FOTY3KEMLUVZ99J5FBINNVRBQC1Z,5,1493607667217,"{""rt"": 19297, ""trial_type"": ""survey-multi-choice"", ""responses"": ""[\""1\"",\""True\"",\""$0.10\"",\""At most 15\"",\""My earnings for each round are equal to the <i>sum</i> of the values of all locations I visit (minus the cost of making observations), and I will actually be paid 5% the earnings from one of the 8 rounds.\"",\""True\""]"", ""internal_node_id"": ""0.0-0.2-1.2"", ""time_elapsed"": 499406, ""questions"": ""[\""How many flights are there per round?\"",\""True or false: The hidden values will change each time I start a new round.\"",\""How much does it cost to observe each hidden value?\"",\""How many hidden values am I allowed to observe in each round?\"",\""Which statement is TRUE?\"",\""True of false: The duration of the delay is proportional to how much more money I could have earned by planning and deciding better.\""]"", ""correct"": [false, true, true, false, true, true], ""trial_index"": 5}"
A154X03NKVZZL1:33FOTY3KEMLUVZ99J5FBINNVRBQC1Z,6,1493607672833,"{""rt"": 4611, ""trial_type"": ""instructions"", ""view_history"": ""[{\""page_index\"":0,\""viewing_time\"":1666},{\""page_index\"":1,\""viewing_time\"":767},{\""page_index\"":2,\""viewing_time\"":732},{\""page_index\"":3,\""viewing_time\"":1444}]"", ""internal_node_id"": ""0.0-0.3-0.3"", ""time_elapsed"": 505021, ""trial_index"": 6}"
A154X03NKVZZL1:33FOTY3KEMLUVZ99J5FBINNVRBQC1Z,7,1493607698656,"{""rt"": 21136, ""trial_type"": ""survey-multi-choice"", ""responses"": ""[\""1\"",\""True\"",\""$0.10\"",\""As many or as few as I wish\"",\""My earnings for each round are equal to the value of one of the locations I visit (minus the cost of making observations), and I will actually be paid the earnings from one of the 8 rounds.\"",\""True\""]"", ""internal_node_id"": ""0.0-0.3-1.3"", ""time_elapsed"": 530844, ""questions"": ""[\""How many flights are there per round?\"",\""True or false: The hidden values will change each time I start a new round.\"",\""How much does it cost to observe each hidden value?\"",\""How many hidden values am I allowed to observe in each round?\"",\""Which statement is TRUE?\"",\""True of false: The duration of the delay is proportional to how much more money I could have earned by planning and deciding better.\""]"", ""correct"": [false, true, true, true, false, true], ""trial_index"": 7}"
A154X03NKVZZL1:33FOTY3KEMLUVZ99J5FBINNVRBQC1Z,8,1493607723744,"{""rt"": 24082, ""trial_type"": ""instructions"", ""view_history"": ""[{\""page_index\"":0,\""viewing_time\"":20531},{\""page_index\"":1,\""viewing_time\"":1054},{\""page_index\"":2,\""viewing_time\"":1479},{\""page_index\"":3,\""viewing_time\"":1016}]"", ""internal_node_id"": ""0.0-0.4-0.4"", ""time_elapsed"": 555932, ""trial_index"": 8}"
A154X03NKVZZL1:33FOTY3KEMLUVZ99J5FBINNVRBQC1Z,9,1493607746561,"{""rt"": 20254, ""trial_type"": ""survey-multi-choice"", ""responses"": ""[\""1\"",\""True\"",\""$0.10\"",\""As many or as few as I wish\"",\""My earnings for each round are equal to the value of one of the locations I visit (minus the cost of making observations), and I will actually be paid the earnings from one of the 8 rounds.\"",\""True\""]"", ""internal_node_id"": ""0.0-0.4-1.4"", ""time_elapsed"": 578749, ""questions"": ""[\""How many flights are there per round?\"",\""True or false: The hidden values will change each time I start a new round.\"",\""How much does it cost to observe each hidden value?\"",\""How many hidden values am I allowed to observe in each round?\"",\""Which statement is TRUE?\"",\""True of false: The duration of the delay is proportional to how much more money I could have earned by planning and deciding better.\""]"", ""correct"": [false, true, true, true, false, true], ""trial_index"": 9}"
A154X03NKVZZL1:33FOTY3KEMLUVZ99J5FBINNVRBQC1Z,10,1493607751094,"{""rt"": 3527, ""trial_type"": ""instructions"", ""view_history"": ""[{\""page_index\"":0,\""viewing_time\"":1100},{\""page_index\"":1,\""viewing_time\"":791},{\""page_index\"":2,\""viewing_time\"":824},{\""page_index\"":3,\""viewing_time\"":811}]"", ""internal_node_id"": ""0.0-0.5-0.5"", ""time_elapsed"": 583283, ""trial_index"": 10}"
A154X03NKVZZL1:33FOTY3KEMLUVZ99J5FBINNVRBQC1Z,11,1493607774972,"{""rt"": 21202, ""trial_type"": ""survey-multi-choice"", ""responses"": ""[\""1\"",\""True\"",\""$0.10\"",\""As many or as few as I wish\"",\""My earnings for each round are equal to the <i>sum</i> of the values of all locations I visit (minus the cost of making observations), and I will actually be paid 5% the earnings from one of the 8 rounds.\"",\""True\""]"", ""internal_node_id"": ""0.0-0.5-1.5"", ""time_elapsed"": 607160, ""questions"": ""[\""How many flights are there per round?\"",\""True or false: The hidden values will change each time I start a new round.\"",\""How much does it cost to observe each hidden value?\"",\""How many hidden values am I allowed to observe in each round?\"",\""Which statement is TRUE?\"",\""True of false: The duration of the delay is proportional to how much more money I could have earned by planning and deciding better.\""]"", ""correct"": [false, true, true, true, true, true], ""trial_index"": 11}"
A154X03NKVZZL1:33FOTY3KEMLUVZ99J5FBINNVRBQC1Z,12,1493607847464,"{""rt"": 71487, ""trial_type"": ""instructions"", ""view_history"": ""[{\""page_index\"":0,\""viewing_time\"":8191},{\""page_index\"":1,\""viewing_time\"":30636},{\""page_index\"":2,\""viewing_time\"":24252},{\""page_index\"":3,\""viewing_time\"":8405}]"", ""internal_node_id"": ""0.0-0.6-0.6"", ""time_elapsed"": 679652, ""trial_index"": 12}"
A154X03NKVZZL1:33FOTY3KEMLUVZ99J5FBINNVRBQC1Z,13,1493607892704,"{""rt"": 42880, ""trial_type"": ""survey-multi-choice"", ""responses"": ""[\""1\"",\""True\"",\""$0.10\"",\""As many or as few as I wish\"",\""My earnings for each round are equal to the <i>sum</i> of the values of all locations I visit (minus the cost of making observations), and I will actually be paid 5% the earnings from one of the 8 rounds.\"",\""True\""]"", ""internal_node_id"": ""0.0-0.6-1.6"", ""time_elapsed"": 724892, ""questions"": ""[\""How many flights are there per round?\"",\""True or false: The hidden values will change each time I start a new round.\"",\""How much does it cost to observe each hidden value?\"",\""How many hidden values am I allowed to observe in each round?\"",\""Which statement is TRUE?\"",\""True of false: The duration of the delay is proportional to how much more money I could have earned by planning and deciding better.\""]"", ""correct"": [false, true, true, true, true, true], ""trial_index"": 13}"
A154X03NKVZZL1:33FOTY3KEMLUVZ99J5FBINNVRBQC1Z,14,1493607928806,"{""rt"": 35095, ""trial_type"": ""instructions"", ""view_history"": ""[{\""page_index\"":0,\""viewing_time\"":11976},{\""page_index\"":1,\""viewing_time\"":8626},{\""page_index\"":2,\""viewing_time\"":3512},{\""page_index\"":3,\""viewing_time\"":10979}]"", ""internal_node_id"": ""0.0-0.7-0.7"", ""time_elapsed"": 760994, ""trial_index"": 14}"
A154X03NKVZZL1:33FOTY3KEMLUVZ99J5FBINNVRBQC1Z,15,1493607961122,"{""rt"": 29905, ""trial_type"": ""survey-multi-choice"", ""responses"": ""[\""4\"",\""True\"",\""$0.10\"",\""As many or as few as I wish\"",\""My earnings for each round are equal to the <i>sum</i> of the values of all locations I visit (minus the cost of making observations), and I will actually be paid 5% the earnings from one of the 8 rounds.\"",\""True\""]"", ""internal_node_id"": ""0.0-0.7-1.7"", ""time_elapsed"": 793311, ""questions"": ""[\""How many flights are there per round?\"",\""True or false: The hidden values will change each time I start a new round.\"",\""How much does it cost to observe each hidden value?\"",\""How many hidden values am I allowed to observe in each round?\"",\""Which statement is TRUE?\"",\""True of false: The duration of the delay is proportional to how much more money I could have earned by planning and deciding better.\""]"", ""correct"": [false, true, true, true, true, true], ""trial_index"": 15}"
A154X03NKVZZL1:33FOTY3KEMLUVZ99J5FBINNVRBQC1Z,16,1493607970135,"{""rt"": 8008, ""trial_type"": ""instructions"", ""view_history"": ""[{\""page_index\"":0,\""viewing_time\"":1909},{\""page_index\"":1,\""viewing_time\"":1168},{\""page_index\"":2,\""viewing_time\"":846},{\""page_index\"":3,\""viewing_time\"":1412},{\""page_index\"":2,\""viewing_time\"":1715},{\""page_index\"":3,\""viewing_time\"":957}]"", ""internal_node_id"": ""0.0-0.8-0.8"", ""time_elapsed"": 802324, ""trial_index"": 16}"
A154X03NKVZZL1:33FOTY3KEMLUVZ99J5FBINNVRBQC1Z,17,1493607995728,"{""rt"": 23029, ""trial_type"": ""survey-multi-choice"", ""responses"": ""[\""1\"",\""True\"",\""$0.10\"",\""As many or as few as I wish\"",\""My earnings for each round are equal to the <i>sum</i> of the values of all locations I visit (minus the cost of making observations), and I will actually be paid 5% the earnings from one of the 8 rounds.\"",\""False\""]"", ""internal_node_id"": ""0.0-0.8-1.8"", ""time_elapsed"": 827916, ""questions"": ""[\""How many flights are there per round?\"",\""True or false: The hidden values will change each time I start a new round.\"",\""How much does it cost to observe each hidden value?\"",\""How many hidden values am I allowed to observe in each round?\"",\""Which statement is TRUE?\"",\""True of false: The duration of the delay is proportional to how much more money I could have earned by planning and deciding better.\""]"", ""correct"": [false, true, true, true, true, false], ""trial_index"": 17}"
A154X03NKVZZL1:33FOTY3KEMLUVZ99J5FBINNVRBQC1Z,18,1493608005385,"{""rt"": 8567, ""trial_type"": ""instructions"", ""view_history"": ""[{\""page_index\"":0,\""viewing_time\"":1152},{\""page_index\"":1,\""viewing_time\"":805},{\""page_index\"":2,\""viewing_time\"":5714},{\""page_index\"":3,\""viewing_time\"":894}]"", ""internal_node_id"": ""0.0-0.9-0.9"", ""time_elapsed"": 837573, ""trial_index"": 18}"
A154X03NKVZZL1:33FOTY3KEMLUVZ99J5FBINNVRBQC1Z,19,1493608038824,"{""rt"": 30954, ""trial_type"": ""survey-multi-choice"", ""responses"": ""[\""2\"",\""True\"",\""$0.10\"",\""As many or as few as I wish\"",\""My earnings for each round are equal to the <i>sum</i> of the values of all locations I visit (minus the cost of making observations), and I will actually be paid 5% the earnings from one of the 8 rounds.\"",\""True\""]"", ""internal_node_id"": ""0.0-0.9-1.9"", ""time_elapsed"": 871013, ""questions"": ""[\""How many flights are there per round?\"",\""True or false: The hidden values will change each time I start a new round.\"",\""How much does it cost to observe each hidden value?\"",\""How many hidden values am I allowed to observe in each round?\"",\""Which statement is TRUE?\"",\""True of false: The duration of the delay is proportional to how much more money I could have earned by planning and deciding better.\""]"", ""correct"": [false, true, true, true, true, true], ""trial_index"": 19}"
A154X03NKVZZL1:33FOTY3KEMLUVZ99J5FBINNVRBQC1Z,20,1493608065998,"{""rt"": 26167, ""trial_type"": ""instructions"", ""view_history"": ""[{\""page_index\"":0,\""viewing_time\"":16937},{\""page_index\"":1,\""viewing_time\"":910},{\""page_index\"":2,\""viewing_time\"":1143},{\""page_index\"":3,\""viewing_time\"":7174}]"", ""internal_node_id"": ""0.0-0.10-0.10"", ""time_elapsed"": 898186, ""trial_index"": 20}"
A154X03NKVZZL1:33FOTY3KEMLUVZ99J5FBINNVRBQC1Z,21,1493608094987,"{""rt"": 25026, ""trial_type"": ""survey-multi-choice"", ""responses"": ""[\""3\"",\""True\"",\""$0.10\"",\""As many or as few as I wish\"",\""My earnings for each round are equal to the value of one of the locations I visit (minus the cost of making observations), but these earnings aren't real money.\"",\""True\""]"", ""internal_node_id"": ""0.0-0.10-1.10"", ""time_elapsed"": 927176, ""questions"": ""[\""How many flights are there per round?\"",\""True or false: The hidden values will change each time I start a new round.\"",\""How much does it cost to observe each hidden value?\"",\""How many hidden values am I allowed to observe in each round?\"",\""Which statement is TRUE?\"",\""True of false: The duration of the delay is proportional to how much more money I could have earned by planning and deciding better.\""]"", ""correct"": [true, true, true, true, false, true], ""trial_index"": 21}"
A154X03NKVZZL1:33FOTY3KEMLUVZ99J5FBINNVRBQC1Z,22,1493608172875,"{""rt"": 76876, ""trial_type"": ""instructions"", ""view_history"": ""[{\""page_index\"":0,\""viewing_time\"":29045},{\""page_index\"":1,\""viewing_time\"":25520},{\""page_index\"":2,\""viewing_time\"":11928},{\""page_index\"":3,\""viewing_time\"":10381}]"", ""internal_node_id"": ""0.0-0.11-0.11"", ""time_elapsed"": 1005063, ""trial_index"": 22}"
A154X03NKVZZL1:33FOTY3KEMLUVZ99J5FBINNVRBQC1Z,23,1493608240364,"{""rt"": 64335, ""trial_type"": ""survey-multi-choice"", ""responses"": ""[\""1\"",\""True\"",\""$0.10\"",\""As many or as few as I wish\"",\""My earnings for each round are equal to the <i>sum</i> of the values of all locations I visit (minus the cost of making observations), and I will actually be paid 5% the earnings from one of the 8 rounds.\"",\""True\""]"", ""internal_node_id"": ""0.0-0.11-1.11"", ""time_elapsed"": 1072552, ""questions"": ""[\""How many flights are there per round?\"",\""True or false: The hidden values will change each time I start a new round.\"",\""How much does it cost to observe each hidden value?\"",\""How many hidden values am I allowed to observe in each round?\"",\""Which statement is TRUE?\"",\""True of false: The duration of the delay is proportional to how much more money I could have earned by planning and deciding better.\""]"", ""correct"": [false, true, true, true, true, true], ""trial_index"": 23}"
A154X03NKVZZL1:33FOTY3KEMLUVZ99J5FBINNVRBQC1Z,24,1493608245915,"{""rt"": 4545, ""trial_type"": ""instructions"", ""view_history"": ""[{\""page_index\"":0,\""viewing_time\"":1311},{\""page_index\"":1,\""viewing_time\"":936},{\""page_index\"":2,\""viewing_time\"":714},{\""page_index\"":3,\""viewing_time\"":1583}]"", ""internal_node_id"": ""0.0-0.12-0.12"", ""time_elapsed"": 1078104, ""trial_index"": 24}"
A154X03NKVZZL1:33FOTY3KEMLUVZ99J5FBINNVRBQC1Z,25,1493608266315,"{""rt"": 18135, ""trial_type"": ""survey-multi-choice"", ""responses"": ""[\""2\"",\""True\"",\""$0.10\"",\""As many or as few as I wish\"",\""My earnings for each round are equal to the <i>sum</i> of the values of all locations I visit (minus the cost of making observations), and I will actually be paid 5% the earnings from one of the 8 rounds.\"",\""True\""]"", ""internal_node_id"": ""0.0-0.12-1.12"", ""time_elapsed"": 1098503, ""questions"": ""[\""How many flights are there per round?\"",\""True or false: The hidden values will change each time I start a new round.\"",\""How much does it cost to observe each hidden value?\"",\""How many hidden values am I allowed to observe in each round?\"",\""Which statement is TRUE?\"",\""True of false: The duration of the delay is proportional to how much more money I could have earned by planning and deciding better.\""]"", ""correct"": [false, true, true, true, true, true], ""trial_index"": 25}"
A154X03NKVZZL1:33FOTY3KEMLUVZ99J5FBINNVRBQC1Z,26,1493608271331,"{""rt"": 3957, ""trial_type"": ""instructions"", ""view_history"": ""[{\""page_index\"":0,\""viewing_time\"":1389},{\""page_index\"":1,\""viewing_time\"":929},{\""page_index\"":2,\""viewing_time\"":767},{\""page_index\"":3,\""viewing_time\"":871}]"", ""internal_node_id"": ""0.0-0.13-0.13"", ""time_elapsed"": 1103520, ""trial_index"": 26}"
A154X03NKVZZL1:33FOTY3KEMLUVZ99J5FBINNVRBQC1Z,27,1493608291279,"{""rt"": 18845, ""trial_type"": ""survey-multi-choice"", ""responses"": ""[\""3\"",\""True\"",\""$0.10\"",\""As many or as few as I wish\"",\""My earnings for each round are equal to the <i>sum</i> of the values of all locations I visit (minus the cost of making observations), and I will actually be paid 5% the earnings from one of the 8 rounds.\"",\""True\""]"", ""internal_node_id"": ""0.0-0.13-1.13"", ""time_elapsed"": 1123468, ""questions"": ""[\""How many flights are there per round?\"",\""True or false: The hidden values will change each time I start a new round.\"",\""How much does it cost to observe each hidden value?\"",\""How many hidden values am I allowed to observe in each round?\"",\""Which statement is TRUE?\"",\""True of false: The duration of the delay is proportional to how much more money I could have earned by planning and deciding better.\""]"", ""correct"": [true, true, true, true, true, true], ""trial_index"": 27}"
A154X03NKVZZL1:33FOTY3KEMLUVZ99J5FBINNVRBQC1Z,28,1493608421833,"{""rt"": [19093, 20645, 997], ""trial_type"": ""graph"", ""infoCost"": 0.1, ""feedback"": true, ""minTime"": 45, ""delays"": [81, -4, -4], ""actionTimes"": [19094, 121768, 123964], ""time_elapsed"": 1254021, ""actions"": [""up"", ""up"", ""left""], ""trialIndex"": 1, ""score"": 21.6, ""trial_index"": 28, ""internal_node_id"": ""0.0-1.0-0.0"", ""clickTimes"": [2521, 8253, 10721, 13009, 13924, 106670, 107712, 108871, 109536, 110394, 111959, 112571, 113508, 114213], ""path"": [1, 3, 7, 12], ""trialID"": 4, ""clicks"": [""12"", ""3"", ""4"", ""7"", ""13"", ""2"", ""5"", ""9"", ""17"", ""16"", ""11"", ""6"", ""8"", ""14""], ""condition"": 4}"
A154X03NKVZZL1:33FOTY3KEMLUVZ99J5FBINNVRBQC1Z,29,1493608504218,"{""rt"": [9022, 8433, 665], ""trial_type"": ""graph"", ""infoCost"": 0.1, ""feedback"": true, ""minTime"": 45, ""delays"": [33, -4, -4], ""actionTimes"": [9023, 51656, 53488], ""time_elapsed"": 1336407, ""actions"": [""up"", ""up"", ""right""], ""trialIndex"": 2, ""score"": 20.3, ""trial_index"": 29, ""internal_node_id"": ""0.0-1.0-1.0"", ""clickTimes"": [1913, 3978, 5762, 6788, 46539, 47904, 50076], ""path"": [1, 3, 7, 13], ""trialID"": 1, ""clicks"": [""3"", ""4"", ""2"", ""5"", ""7"", ""13"", ""12""], ""condition"": 4}"
A154X03NKVZZL1:33FOTY3KEMLUVZ99J5FBINNVRBQC1Z,30,1493608554296,"{""rt"": [18852, 2004, 155], ""trial_type"": ""graph"", ""infoCost"": 0.1, ""feedback"": true, ""minTime"": 45, ""delays"": [-4, -4, -4], ""actionTimes"": [18853, 21380, 22522], ""time_elapsed"": 1386485, ""actions"": [""left"", ""left"", ""up""], ""trialIndex"": 3, ""score"": 32.4, ""trial_index"": 30, ""internal_node_id"": ""0.0-1.0-2.0"", ""clickTimes"": [1670, 2656, 3481, 4489, 5537, 6143, 6907, 7560, 8115, 8686, 9290, 9813, 10395, 11587, 12126, 12646], ""path"": [1, 4, 8, 14], ""trialID"": 5, ""clicks"": [""3"", ""4"", ""5"", ""2"", ""6"", ""10"", ""11"", ""17"", ""9"", ""16"", ""15"", ""8"", ""14"", ""12"", ""7"", ""13""], ""condition"": 4}"
A154X03NKVZZL1:33FOTY3KEMLUVZ99J5FBINNVRBQC1Z,31,1493608603534,"{""rt"": [14263, 1432, 178], ""trial_type"": ""graph"", ""infoCost"": 0.1, ""feedback"": true, ""minTime"": 45, ""delays"": [-4, -4, -4], ""actionTimes"": [14264, 16222, 17468], ""time_elapsed"": 1435723, ""actions"": [""up"", ""up"", ""left""], ""trialIndex"": 4, ""score"": 35.4, ""trial_index"": 31, ""internal_node_id"": ""0.0-1.0-3.0"", ""clickTimes"": [852, 2289, 2610, 3299, 4217, 4892, 5455, 6040, 6692, 7313, 7951, 8653, 9174, 10296, 10832, 11657], ""path"": [1, 3, 7, 12], ""trialID"": 6, ""clicks"": [""3"", ""4"", ""8"", ""14"", ""15"", ""16"", ""9"", ""17"", ""5"", ""2"", ""11"", ""6"", ""10"", ""7"", ""12"", ""13""], ""condition"": 4}"
A154X03NKVZZL1:33FOTY3KEMLUVZ99J5FBINNVRBQC1Z,32,1493608667960,"{""rt"": [12092, 2120, 1344], ""trial_type"": ""graph"", ""infoCost"": 0.1, ""feedback"": true, ""minTime"": 45, ""delays"": [-4, -4, -4], ""actionTimes"": [12092, 15143, 17540], ""time_elapsed"": 1500148, ""actions"": [""right"", ""right"", ""up""], ""trialIndex"": 5, ""score"": 32.8, ""trial_index"": 32, ""internal_node_id"": ""0.0-1.0-4.0"", ""clickTimes"": [1093, 1858, 2580, 3323, 4080, 4600, 5179, 6029, 6638, 7286, 9840, 10580], ""path"": [1, 2, 6, 10], ""trialID"": 2, ""clicks"": [""4"", ""3"", ""2"", ""5"", ""16"", ""9"", ""17"", ""11"", ""6"", ""10"", ""8"", ""14""], ""condition"": 4}"
A154X03NKVZZL1:33FOTY3KEMLUVZ99J5FBINNVRBQC1Z,33,1493608723280,"{""rt"": [22039, 839, 611], ""trial_type"": ""graph"", ""infoCost"": 0.1, ""feedback"": true, ""minTime"": 45, ""delays"": [-4, -4, -4], ""actionTimes"": [22040, 23408, 25023], ""time_elapsed"": 1555468, ""actions"": [""right"", ""right"", ""up""], ""trialIndex"": 6, ""score"": 20.4, ""trial_index"": 33, ""internal_node_id"": ""0.0-1.0-5.0"", ""clickTimes"": [7780, 8336, 8882, 9529, 10255, 10844, 12091, 12650, 13414, 14094, 15486, 16020, 16641, 17356, 17861, 19007], ""path"": [1, 2, 6, 10], ""trialID"": 7, ""clicks"": [""12"", ""7"", ""13"", ""3"", ""2"", ""11"", ""4"", ""5"", ""10"", ""6"", ""8"", ""14"", ""15"", ""16"", ""9"", ""17""], ""condition"": 4}"
A154X03NKVZZL1:33FOTY3KEMLUVZ99J5FBINNVRBQC1Z,34,1493608776206,"{""rt"": [20342, 450, 510], ""trial_type"": ""graph"", ""infoCost"": 0.1, ""feedback"": true, ""minTime"": 45, ""delays"": [-4, -4, -4], ""actionTimes"": [20343, 21558, 23126], ""time_elapsed"": 1608394, ""actions"": [""right"", ""right"", ""up""], ""trialIndex"": 7, ""score"": 32.7, ""trial_index"": 34, ""internal_node_id"": ""0.0-1.0-6.0"", ""clickTimes"": [2616, 3213, 3947, 4631, 6312, 7032, 7736, 8640, 9294, 10719, 13513, 14322, 15166], ""path"": [1, 2, 6, 10], ""trialID"": 3, ""clicks"": [""2"", ""5"", ""4"", ""3"", ""7"", ""13"", ""12"", ""10"", ""6"", ""11"", ""9"", ""16"", ""17""], ""condition"": 4}"
A154X03NKVZZL1:33FOTY3KEMLUVZ99J5FBINNVRBQC1Z,35,1493608824071,"{""rt"": [22365, 1409, 1101], ""trial_type"": ""graph"", ""infoCost"": 0.1, ""feedback"": true, ""minTime"": 45, ""delays"": [-4, -4, -4], ""actionTimes"": [22366, 24590, 26804], ""time_elapsed"": 1656259, ""actions"": [""left"", ""left"", ""up""], ""trialIndex"": 8, ""score"": 38.5, ""trial_index"": 35, ""internal_node_id"": ""0.0-1.0-7.0"", ""clickTimes"": [928, 1926, 2598, 3355, 4610, 5857, 8137, 9338, 10604, 11360, 12593, 14086, 15848, 16408, 21145], ""path"": [1, 4, 8, 14], ""trialID"": 0, ""clicks"": [""2"", ""3"", ""4"", ""5"", ""7"", ""13"", ""10"", ""6"", ""8"", ""14"", ""15"", ""16"", ""9"", ""17"", ""12""], ""condition"": 4}"
A154X03NKVZZL1:33FOTY3KEMLUVZ99J5FBINNVRBQC1Z,36,1493608833634,"{""rt"": 8489, ""trial_type"": ""button-response"", ""button_pressed"": 0, ""stimulus"": ""<h1 id=\""thiscompletesthehit\"">This completes the HIT</h1>\n\n<p>One or your trials has been randomly selected and we will pay you 5% of your profit on that trial as a bonus. You will be awarded a bonus of $1.64</p>"", ""internal_node_id"": ""0.0-2.0"", ""time_elapsed"": 1665822, ""trial_index"": 36}"
A16UAN46CNIRHY:3TXMY6UCAEOIC3TQ4K5QJOV3ZNICQU,0,1493610130782,"{""rt"": 189543, ""trial_type"": ""instructions"", ""view_history"": ""[{\""page_index\"":0,\""viewing_time\"":39971},{\""page_index\"":1,\""viewing_time\"":41972},{\""page_index\"":2,\""viewing_time\"":24990},{\""page_index\"":3,\""viewing_time\"":63414},{\""page_index\"":2,\""viewing_time\"":5835},{\""page_index\"":1,\""viewing_time\"":11890},{\""page_index\"":2,\""viewing_time\"":704},{\""page_index\"":3,\""viewing_time\"":767}]"", ""internal_node_id"": ""0.0-0.0-0.0"", ""time_elapsed"": 189545, ""trial_index"": 0}"
A16UAN46CNIRHY:3TXMY6UCAEOIC3TQ4K5QJOV3ZNICQU,1,1493610197102,"{""rt"": 61838, ""trial_type"": ""survey-multi-choice"", ""responses"": ""[\""4\"",\""True\"",\""$0.10\"",\""As many or as few as I wish\"",\""My earnings for each round are equal to the <i>sum</i> of the values of all locations I visit (minus the cost of making observations), and I will actually be paid 5% the earnings from one of the 8 rounds.\"",\""True\""]"", ""internal_node_id"": ""0.0-0.0-1.0"", ""time_elapsed"": 255865, ""questions"": ""[\""How many flights are there per round?\"",\""True or false: The hidden values will change each time I start a new round.\"",\""How much does it cost to observe each hidden value?\"",\""How many hidden values am I allowed to observe in each round?\"",\""Which statement is TRUE?\"",\""True of false: The duration of the delay is proportional to how much more money I could have earned by planning and deciding better.\""]"", ""correct"": [false, true, true, true, true, true], ""trial_index"": 1}"
A16UAN46CNIRHY:3TXMY6UCAEOIC3TQ4K5QJOV3ZNICQU,2,1493610293522,"{""rt"": 95418, ""trial_type"": ""instructions"", ""view_history"": ""[{\""page_index\"":0,\""viewing_time\"":31550},{\""page_index\"":1,\""viewing_time\"":26591},{\""page_index\"":2,\""viewing_time\"":25089},{\""page_index\"":3,\""viewing_time\"":12187}]"", ""internal_node_id"": ""0.0-0.1-0.1"", ""time_elapsed"": 352285, ""trial_index"": 2}"
A16UAN46CNIRHY:3TXMY6UCAEOIC3TQ4K5QJOV3ZNICQU,3,1493610327861,"{""rt"": 25487, ""trial_type"": ""survey-multi-choice"", ""responses"": ""[\""2\"",\""True\"",\""$0.10\"",\""As many or as few as I wish\"",\""My earnings for each round are equal to the <i>sum</i> of the values of all locations I visit (minus the cost of making observations), and I will actually be paid 5% the earnings from one of the 8 rounds.\"",\""True\""]"", ""internal_node_id"": ""0.0-0.1-1.1"", ""time_elapsed"": 386623, ""questions"": ""[\""How many flights are there per round?\"",\""True or false: The hidden values will change each time I start a new round.\"",\""How much does it cost to observe each hidden value?\"",\""How many hidden values am I allowed to observe in each round?\"",\""Which statement is TRUE?\"",\""True of false: The duration of the delay is proportional to how much more money I could have earned by planning and deciding better.\""]"", ""correct"": [false, true, true, true, true, true], ""trial_index"": 3}"
A16UAN46CNIRHY:3TXMY6UCAEOIC3TQ4K5QJOV3ZNICQU,4,1493610390975,"{""rt"": 62114, ""trial_type"": ""instructions"", ""view_history"": ""[{\""page_index\"":0,\""viewing_time\"":31964},{\""page_index\"":1,\""viewing_time\"":20150},{\""page_index\"":2,\""viewing_time\"":8766},{\""page_index\"":3,\""viewing_time\"":1234}]"", ""internal_node_id"": ""0.0-0.2-0.2"", ""time_elapsed"": 449738, ""trial_index"": 4}"
A16UAN46CNIRHY:3TXMY6UCAEOIC3TQ4K5QJOV3ZNICQU,5,1493610414477,"{""rt"": 18957, ""trial_type"": ""survey-multi-choice"", ""responses"": ""[\""3\"",\""True\"",\""$0.10\"",\""As many or as few as I wish\"",\""My earnings for each round are equal to the <i>sum</i> of the values of all locations I visit (minus the cost of making observations), and I will actually be paid 5% the earnings from one of the 8 rounds.\"",\""False\""]"", ""internal_node_id"": ""0.0-0.2-1.2"", ""time_elapsed"": 473240, ""questions"": ""[\""How many flights are there per round?\"",\""True or false: The hidden values will change each time I start a new round.\"",\""How much does it cost to observe each hidden value?\"",\""How many hidden values am I allowed to observe in each round?\"",\""Which statement is TRUE?\"",\""True of false: The duration of the delay is proportional to how much more money I could have earned by planning and deciding better.\""]"", ""correct"": [true, true, true, true, true, false], ""trial_index"": 5}"
A16UAN46CNIRHY:3TXMY6UCAEOIC3TQ4K5QJOV3ZNICQU,6,1493610487159,"{""rt"": 71680, ""trial_type"": ""instructions"", ""view_history"": ""[{\""page_index\"":0,\""viewing_time\"":40237},{\""page_index\"":1,\""viewing_time\"":4963},{\""page_index\"":2,\""viewing_time\"":20933},{\""page_index\"":3,\""viewing_time\"":5547}]"", ""internal_node_id"": ""0.0-0.3-0.3"", ""time_elapsed"": 545922, ""trial_index"": 6}"
A16UAN46CNIRHY:3TXMY6UCAEOIC3TQ4K5QJOV3ZNICQU,7,1493610527729,"{""rt"": 36444, ""trial_type"": ""survey-multi-choice"", ""responses"": ""[\""3\"",\""False\"",\""$0.10\"",\""As many or as few as I wish\"",\""My earnings for each round are equal to the <i>sum</i> of the values of all locations I visit (minus the cost of making observations), and I will actually be paid 5% the earnings from one of the 8 rounds.\"",\""True\""]"", ""internal_node_id"": ""0.0-0.3-1.3"", ""time_elapsed"": 586492, ""questions"": ""[\""How many flights are there per round?\"",\""True or false: The hidden values will change each time I start a new round.\"",\""How much does it cost to observe each hidden value?\"",\""How many hidden values am I allowed to observe in each round?\"",\""Which statement is TRUE?\"",\""True of false: The duration of the delay is proportional to how much more money I could have earned by planning and deciding better.\""]"", ""correct"": [true, false, true, true, true, true], ""trial_index"": 7}"
A16UAN46CNIRHY:3TXMY6UCAEOIC3TQ4K5QJOV3ZNICQU,8,1493610535121,"{""rt"": 6389, ""trial_type"": ""instructions"", ""view_history"": ""[{\""page_index\"":0,\""viewing_time\"":4373},{\""page_index\"":1,\""viewing_time\"":743},{\""page_index\"":2,\""viewing_time\"":757},{\""page_index\"":3,\""viewing_time\"":516}]"", ""internal_node_id"": ""0.0-0.4-0.4"", ""time_elapsed"": 593883, ""trial_index"": 8}"
A16UAN46CNIRHY:3TXMY6UCAEOIC3TQ4K5QJOV3ZNICQU,9,1493610556738,"{""rt"": 20602, ""trial_type"": ""survey-multi-choice"", ""responses"": ""[\""3\"",\""True\"",\""$0.10\"",\""As many or as few as I wish\"",\""My earnings for each round are equal to the <i>sum</i> of the values of all locations I visit (minus the cost of making observations), and I will actually be paid 5% the earnings from one of the 8 rounds.\"",\""True\""]"", ""internal_node_id"": ""0.0-0.4-1.4"", ""time_elapsed"": 615501, ""questions"": ""[\""How many flights are there per round?\"",\""True or false: The hidden values will change each time I start a new round.\"",\""How much does it cost to observe each hidden value?\"",\""How many hidden values am I allowed to observe in each round?\"",\""Which statement is TRUE?\"",\""True of false: The duration of the delay is proportional to how much more money I could have earned by planning and deciding better.\""]"", ""correct"": [true, true, true, true, true, true], ""trial_index"": 9}"
A16UAN46CNIRHY:3TXMY6UCAEOIC3TQ4K5QJOV3ZNICQU,10,1493610617097,"{""rt"": [7931, 1552, 441], ""trial_type"": ""graph"", ""infoCost"": 0.1, ""feedback"": true, ""minTime"": 45, ""delays"": [-4, -4, -4], ""actionTimes"": [7932, 10371, 11686], ""time_elapsed"": 675860, ""actions"": [""right"", ""right"", ""up""], ""trialIndex"": 1, ""score"": 22, ""trial_index"": 10, ""internal_node_id"": ""0.0-1.0-0.0"", ""clickTimes"": [], ""path"": [1, 2, 6, 10], ""trialID"": 7, ""clicks"": [], ""condition"": 4}"
A16UAN46CNIRHY:3TXMY6UCAEOIC3TQ4K5QJOV3ZNICQU,11,1493610699938,"{""rt"": [4467, 4801, 239], ""trial_type"": ""graph"", ""infoCost"": 0.1, ""feedback"": true, ""minTime"": 45, ""delays"": [33, -4, -4], ""actionTimes"": [4467, 43164, 44309], ""time_elapsed"": 758700, ""actions"": [""up"", ""up"", ""left""], ""trialIndex"": 2, ""score"": 21, ""trial_index"": 11, ""internal_node_id"": ""0.0-1.0-1.0"", ""clickTimes"": [], ""path"": [1, 3, 7, 12], ""trialID"": 1, ""clicks"": [], ""condition"": 4}"
A16UAN46CNIRHY:3TXMY6UCAEOIC3TQ4K5QJOV3ZNICQU,12,1493610870809,"{""rt"": [1641, 3597, 54], ""trial_type"": ""graph"", ""infoCost"": 0.1, ""feedback"": true, ""minTime"": 45, ""delays"": [36, -4, 86], ""actionTimes"": [1641, 42137, 43087], ""time_elapsed"": 929571, ""actions"": [""left"", ""left"", ""up""], ""trialIndex"": 3, ""score"": 7.9, ""trial_index"": 12, ""internal_node_id"": ""0.0-1.0-2.0"", ""clickTimes"": [136125], ""path"": [1, 4, 8, 14], ""trialID"": 6, ""clicks"": [""6""], ""condition"": 4}"
A16UAN46CNIRHY:3TXMY6UCAEOIC3TQ4K5QJOV3ZNICQU,13,1493610920878,"{""rt"": [13859, 95, 376], ""trial_type"": ""graph"", ""infoCost"": 0.1, ""feedback"": true, ""minTime"": 45, ""delays"": [-4, -4, -4], ""actionTimes"": [13859, 14672, 15873], ""time_elapsed"": 979641, ""actions"": [""right"", ""right"", ""up""], ""trialIndex"": 4, ""score"": 33.2, ""trial_index"": 13, ""internal_node_id"": ""0.0-1.0-3.0"", ""clickTimes"": [2061, 3239, 3958, 5215, 6340, 7567, 8386, 9952], ""path"": [1, 2, 6, 10], ""trialID"": 2, ""clicks"": [""5"", ""9"", ""17"", ""16"", ""2"", ""6"", ""10"", ""11""], ""condition"": 4}"
A16UAN46CNIRHY:3TXMY6UCAEOIC3TQ4K5QJOV3ZNICQU,14,1493610971764,"{""rt"": [11800, 9, 667], ""trial_type"": ""graph"", ""infoCost"": 0.1, ""feedback"": true, ""minTime"": 45, ""delays"": [-4, -4, -4], ""actionTimes"": [11801, 12631, 14181], ""time_elapsed"": 1030526, ""actions"": [""right"", ""right"", ""up""], ""trialIndex"": 5, ""score"": 33.1, ""trial_index"": 14, ""internal_node_id"": ""0.0-1.0-4.0"", ""clickTimes"": [1477, 2561, 3584, 6177, 7062, 7951, 8451, 9093, 9842], ""path"": [1, 2, 6, 10], ""trialID"": 3, ""clicks"": [""3"", ""7"", ""13"", ""14"", ""4"", ""2"", ""6"", ""10"", ""11""], ""condition"": 4}"
A16UAN46CNIRHY:3TXMY6UCAEOIC3TQ4K5QJOV3ZNICQU,15,1493611019669,"{""rt"": [17240, 140, 325], ""trial_type"": ""graph"", ""infoCost"": 0.1, ""feedback"": true, ""minTime"": 45, ""delays"": [-4, -4, -4], ""actionTimes"": [17240, 17999, 19151], ""time_elapsed"": 1078432, ""actions"": [""left"", ""left"", ""up""], ""trialIndex"": 6, ""score"": 32.5, ""trial_index"": 15, ""internal_node_id"": ""0.0-1.0-5.0"", ""clickTimes"": [2585, 3084, 3683, 4691, 5880, 6964, 7521, 8209, 10326, 11232, 11926, 13341, 13934, 14606, 15308], ""path"": [1, 4, 8, 14], ""trialID"": 5, ""clicks"": [""2"", ""6"", ""10"", ""11"", ""5"", ""9"", ""17"", ""16"", ""3"", ""7"", ""13"", ""4"", ""8"", ""14"", ""15""], ""condition"": 4}"
A16UAN46CNIRHY:3TXMY6UCAEOIC3TQ4K5QJOV3ZNICQU,16,1493611067508,"{""rt"": [8292, 29, 30], ""trial_type"": ""graph"", ""infoCost"": 0.1, ""feedback"": true, ""minTime"": 45, ""delays"": [-4, -4, -4], ""actionTimes"": [8292, 9124, 9997], ""time_elapsed"": 1126271, ""actions"": [""left"", ""left"", ""down""], ""trialIndex"": 7, ""score"": 39.6, ""trial_index"": 16, ""internal_node_id"": ""0.0-1.0-6.0"", ""clickTimes"": [1118, 1766, 2335, 3038], ""path"": [1, 4, 8, 15], ""trialID"": 0, ""clicks"": [""4"", ""8"", ""14"", ""15""], ""condition"": 4}"
A16UAN46CNIRHY:3TXMY6UCAEOIC3TQ4K5QJOV3ZNICQU,17,1493611114864,"{""rt"": [10345, 84, 1], ""trial_type"": ""graph"", ""infoCost"": 0.1, ""feedback"": true, ""minTime"": 45, ""delays"": [-4, -4, -4], ""actionTimes"": [10346, 11136, 11970], ""time_elapsed"": 1173627, ""actions"": [""down"", ""down"", ""right""], ""trialIndex"": 8, ""score"": 41.2, ""trial_index"": 17, ""internal_node_id"": ""0.0-1.0-7.0"", ""clickTimes"": [2176, 3034, 3714, 4620, 5754, 6894, 7495, 8183], ""path"": [1, 5, 9, 17], ""trialID"": 4, ""clicks"": [""4"", ""8"", ""14"", ""15"", ""5"", ""9"", ""16"", ""17""], ""condition"": 4}"
A16UAN46CNIRHY:3TXMY6UCAEOIC3TQ4K5QJOV3ZNICQU,18,1493611121745,"{""rt"": 5853, ""trial_type"": ""button-response"", ""button_pressed"": 0, ""stimulus"": ""<h1 id=\""thiscompletesthehit\"">This completes the HIT</h1>\n\n<p>One or your trials has been randomly selected and we will pay you 5% of your profit on that trial as a bonus. You will be awarded a bonus of $2.06</p>"", ""internal_node_id"": ""0.0-2.0"", ""time_elapsed"": 1180508, ""trial_index"": 18}"
A174BCWX0VMM1B:3HVVDCPGTES87MMNHGHALKY9MI0TYY,0,1493612569879,"{""rt"": 357616, ""trial_type"": ""instructions"", ""view_history"": ""[{\""page_index\"":0,\""viewing_time\"":185769},{\""page_index\"":1,\""viewing_time\"":77058},{\""page_index\"":2,\""viewing_time\"":55855},{\""page_index\"":3,\""viewing_time\"":38932}]"", ""internal_node_id"": ""0.0-0.0-0.0"", ""time_elapsed"": 357618, ""trial_index"": 0}"
A174BCWX0VMM1B:3HVVDCPGTES87MMNHGHALKY9MI0TYY,1,1493613047832,"{""rt"": 471951, ""trial_type"": ""survey-multi-choice"", ""responses"": ""[\""1\"",\""True\"",\""$0.10\"",\""As many or as few as I wish\"",\""My earnings for each round are equal to the <i>sum</i> of the values of all locations I visit (minus the cost of making observations), and I will actually be paid 5% the earnings from one of the 8 rounds.\"",\""False\""]"", ""internal_node_id"": ""0.0-0.0-1.0"", ""time_elapsed"": 835572, ""questions"": ""[\""How many flights are there per round?\"",\""True or false: The hidden values will change each time I start a new round.\"",\""How much does it cost to observe each hidden value?\"",\""How many hidden values am I allowed to observe in each round?\"",\""Which statement is TRUE?\"",\""True of false: The duration of the delay is proportional to how much more money I could have earned by planning and deciding better.\""]"", ""correct"": [false, true, true, true, true, false], ""trial_index"": 1}"
A174BCWX0VMM1B:3HVVDCPGTES87MMNHGHALKY9MI0TYY,2,1493613091276,"{""rt"": 42440, ""trial_type"": ""instructions"", ""view_history"": ""[{\""page_index\"":0,\""viewing_time\"":10363},{\""page_index\"":1,\""viewing_time\"":8169},{\""page_index\"":2,\""viewing_time\"":10355},{\""page_index\"":3,\""viewing_time\"":13552}]"", ""internal_node_id"": ""0.0-0.1-0.1"", ""time_elapsed"": 879016, ""trial_index"": 2}"
A174BCWX0VMM1B:3HVVDCPGTES87MMNHGHALKY9MI0TYY,3,1493613114064,"{""rt"": 17961, ""trial_type"": ""survey-multi-choice"", ""responses"": ""[\""1\"",\""True\"",\""$0.10\"",\""At most 15\"",\""My earnings for each round are equal to the <i>sum</i> of the values of all locations I visit (minus the cost of making observations), and I will actually be paid 5% the earnings from one of the 8 rounds.\"",\""False\""]"", ""internal_node_id"": ""0.0-0.1-1.1"", ""time_elapsed"": 901803, ""questions"": ""[\""How many flights are there per round?\"",\""True or false: The hidden values will change each time I start a new round.\"",\""How much does it cost to observe each hidden value?\"",\""How many hidden values am I allowed to observe in each round?\"",\""Which statement is TRUE?\"",\""True of false: The duration of the delay is proportional to how much more money I could have earned by planning and deciding better.\""]"", ""correct"": [false, true, true, false, true, false], ""trial_index"": 3}"
A174BCWX0VMM1B:3HVVDCPGTES87MMNHGHALKY9MI0TYY,4,1493613186924,"{""rt"": 71856, ""trial_type"": ""instructions"", ""view_history"": ""[{\""page_index\"":0,\""viewing_time\"":32079},{\""page_index\"":1,\""viewing_time\"":36018},{\""page_index\"":2,\""viewing_time\"":1164},{\""page_index\"":3,\""viewing_time\"":2594}]"", ""internal_node_id"": ""0.0-0.2-0.2"", ""time_elapsed"": 974663, ""trial_index"": 4}"
A174BCWX0VMM1B:3HVVDCPGTES87MMNHGHALKY9MI0TYY,5,1493613282919,"{""rt"": 93847, ""trial_type"": ""survey-multi-choice"", ""responses"": ""[\""1\"",\""True\"",\""$0.10\"",\""As many or as few as I wish\"",\""My earnings for each round are equal to the <i>sum</i> of the values of all locations I visit (minus the cost of making observations), and I will actually be paid 5% the earnings from one of the 8 rounds.\"",\""True\""]"", ""internal_node_id"": ""0.0-0.2-1.2"", ""time_elapsed"": 1070658, ""questions"": ""[\""How many flights are there per round?\"",\""True or false: The hidden values will change each time I start a new round.\"",\""How much does it cost to observe each hidden value?\"",\""How many hidden values am I allowed to observe in each round?\"",\""Which statement is TRUE?\"",\""True of false: The duration of the delay is proportional to how much more money I could have earned by planning and deciding better.\""]"", ""correct"": [false, true, true, true, true, true], ""trial_index"": 5}"
A174BCWX0VMM1B:3HVVDCPGTES87MMNHGHALKY9MI0TYY,6,1493613360035,"{""rt"": 76113, ""trial_type"": ""instructions"", ""view_history"": ""[{\""page_index\"":0,\""viewing_time\"":47932},{\""page_index\"":1,\""viewing_time\"":24362},{\""page_index\"":2,\""viewing_time\"":2423},{\""page_index\"":3,\""viewing_time\"":1394}]"", ""internal_node_id"": ""0.0-0.3-0.3"", ""time_elapsed"": 1147775, ""trial_index"": 6}"
A174BCWX0VMM1B:3HVVDCPGTES87MMNHGHALKY9MI0TYY,7,1493613419145,"{""rt"": 56727, ""trial_type"": ""survey-multi-choice"", ""responses"": ""[\""1\"",\""True\"",\""$0.10\"",\""At most 15\"",\""My earnings for each round are equal to the <i>sum</i> of the values of all locations I visit (minus the cost of making observations), and I will actually be paid 5% the earnings from one of the 8 rounds.\"",\""False\""]"", ""internal_node_id"": ""0.0-0.3-1.3"", ""time_elapsed"": 1206884, ""questions"": ""[\""How many flights are there per round?\"",\""True or false: The hidden values will change each time I start a new round.\"",\""How much does it cost to observe each hidden value?\"",\""How many hidden values am I allowed to observe in each round?\"",\""Which statement is TRUE?\"",\""True of false: The duration of the delay is proportional to how much more money I could have earned by planning and deciding better.\""]"", ""correct"": [false, true, true, false, true, false], ""trial_index"": 7}"
A174BCWX0VMM1B:3HVVDCPGTES87MMNHGHALKY9MI0TYY,8,1493613448813,"{""rt"": 28665, ""trial_type"": ""instructions"", ""view_history"": ""[{\""page_index\"":0,\""viewing_time\"":10431},{\""page_index\"":1,\""viewing_time\"":1348},{\""page_index\"":2,\""viewing_time\"":1498},{\""page_index\"":3,\""viewing_time\"":15386}]"", ""internal_node_id"": ""0.0-0.4-0.4"", ""time_elapsed"": 1236553, ""trial_index"": 8}"
A174BCWX0VMM1B:3HVVDCPGTES87MMNHGHALKY9MI0TYY,9,1493613462942,"{""rt"": 12043, ""trial_type"": ""survey-multi-choice"", ""responses"": ""[\""1\"",\""True\"",\""$0.10\"",\""As many or as few as I wish\"",\""My earnings for each round are equal to the value of one of the locations I visit (minus the cost of making observations), and I will actually be paid the earnings from one of the 8 rounds.\"",\""False\""]"", ""internal_node_id"": ""0.0-0.4-1.4"", ""time_elapsed"": 1250681, ""questions"": ""[\""How many flights are there per round?\"",\""True or false: The hidden values will change each time I start a new round.\"",\""How much does it cost to observe each hidden value?\"",\""How many hidden values am I allowed to observe in each round?\"",\""Which statement is TRUE?\"",\""True of false: The duration of the delay is proportional to how much more money I could have earned by planning and deciding better.\""]"", ""correct"": [false, true, true, true, false, false], ""trial_index"": 9}"
A174BCWX0VMM1B:3HVVDCPGTES87MMNHGHALKY9MI0TYY,10,1493613467249,"{""rt"": 3301, ""trial_type"": ""instructions"", ""view_history"": ""[{\""page_index\"":0,\""viewing_time\"":1480},{\""page_index\"":1,\""viewing_time\"":639},{\""page_index\"":2,\""viewing_time\"":566},{\""page_index\"":3,\""viewing_time\"":615}]"", ""internal_node_id"": ""0.0-0.5-0.5"", ""time_elapsed"": 1254987, ""trial_index"": 10}"
A174BCWX0VMM1B:3HVVDCPGTES87MMNHGHALKY9MI0TYY,11,1493613480749,"{""rt"": 11306, ""trial_type"": ""survey-multi-choice"", ""responses"": ""[\""1\"",\""True\"",\""$0.10\"",\""As many or as few as I wish\"",\""My earnings for each round are equal to the value of one of the locations I visit (minus the cost of making observations), but these earnings aren't real money.\"",\""False\""]"", ""internal_node_id"": ""0.0-0.5-1.5"", ""time_elapsed"": 1268489, ""questions"": ""[\""How many flights are there per round?\"",\""True or false: The hidden values will change each time I start a new round.\"",\""How much does it cost to observe each hidden value?\"",\""How many hidden values am I allowed to observe in each round?\"",\""Which statement is TRUE?\"",\""True of false: The duration of the delay is proportional to how much more money I could have earned by planning and deciding better.\""]"", ""correct"": [false, true, true, true, false, false], ""trial_index"": 11}"
A174BCWX0VMM1B:3HVVDCPGTES87MMNHGHALKY9MI0TYY,12,1493613485205,"{""rt"": 3453, ""trial_type"": ""instructions"", ""view_history"": ""[{\""page_index\"":0,\""viewing_time\"":1589},{\""page_index\"":1,\""viewing_time\"":606},{\""page_index\"":2,\""viewing_time\"":570},{\""page_index\"":3,\""viewing_time\"":686}]"", ""internal_node_id"": ""0.0-0.6-0.6"", ""time_elapsed"": 1272945, ""trial_index"": 12}"
A174BCWX0VMM1B:3HVVDCPGTES87MMNHGHALKY9MI0TYY,13,1493613548496,"{""rt"": 61006, ""trial_type"": ""survey-multi-choice"", ""responses"": ""[\""1\"",\""True\"",\""$0.10\"",\""As many or as few as I wish\"",\""My earnings for each round are equal to the <i>sum</i> of the values of all locations I visit (minus the cost of making observations), and I will actually be paid 5% the earnings from one of the 8 rounds.\"",\""True\""]"", ""internal_node_id"": ""0.0-0.6-1.6"", ""time_elapsed"": 1336236, ""questions"": ""[\""How many flights are there per round?\"",\""True or false: The hidden values will change each time I start a new round.\"",\""How much does it cost to observe each hidden value?\"",\""How many hidden values am I allowed to observe in each round?\"",\""Which statement is TRUE?\"",\""True of false: The duration of the delay is proportional to how much more money I could have earned by planning and deciding better.\""]"", ""correct"": [false, true, true, true, true, true], ""trial_index"": 13}"
A174BCWX0VMM1B:3HVVDCPGTES87MMNHGHALKY9MI0TYY,14,1493613553262,"{""rt"": 3762, ""trial_type"": ""instructions"", ""view_history"": ""[{\""page_index\"":0,\""viewing_time\"":1586},{\""page_index\"":1,\""viewing_time\"":546},{\""page_index\"":2,\""viewing_time\"":568},{\""page_index\"":3,\""viewing_time\"":1060}]"", ""internal_node_id"": ""0.0-0.7-0.7"", ""time_elapsed"": 1341002, ""trial_index"": 14}"
A174BCWX0VMM1B:3HVVDCPGTES87MMNHGHALKY9MI0TYY,15,1493613567169,"{""rt"": 11657, ""trial_type"": ""survey-multi-choice"", ""responses"": ""[\""1\"",\""True\"",\""$0.10\"",\""At most 1\"",\""My earnings for each round are equal to the <i>sum</i> of the values of all locations I visit (minus the cost of making observations), and I will actually be paid 5% the earnings from one of the 8 rounds.\"",\""True\""]"", ""internal_node_id"": ""0.0-0.7-1.7"", ""time_elapsed"": 1354908, ""questions"": ""[\""How many flights are there per round?\"",\""True or false: The hidden values will change each time I start a new round.\"",\""How much does it cost to observe each hidden value?\"",\""How many hidden values am I allowed to observe in each round?\"",\""Which statement is TRUE?\"",\""True of false: The duration of the delay is proportional to how much more money I could have earned by planning and deciding better.\""]"", ""correct"": [false, true, true, false, true, true], ""trial_index"": 15}"
A174BCWX0VMM1B:3HVVDCPGTES87MMNHGHALKY9MI0TYY,16,1493613570904,"{""rt"": 2732, ""trial_type"": ""instructions"", ""view_history"": ""[{\""page_index\"":0,\""viewing_time\"":833},{\""page_index\"":1,\""viewing_time\"":618},{\""page_index\"":2,\""viewing_time\"":515},{\""page_index\"":3,\""viewing_time\"":764}]"", ""internal_node_id"": ""0.0-0.8-0.8"", ""time_elapsed"": 1358644, ""trial_index"": 16}"
A174BCWX0VMM1B:3HVVDCPGTES87MMNHGHALKY9MI0TYY,17,1493613582370,"{""rt"": 9480, ""trial_type"": ""survey-multi-choice"", ""responses"": ""[\""1\"",\""True\"",\""$0.10\"",\""At most 5\"",\""My earnings for each round are equal to the <i>sum</i> of the values of all locations I visit (minus the cost of making observations), and I will actually be paid 5% the earnings from one of the 8 rounds.\"",\""True\""]"", ""internal_node_id"": ""0.0-0.8-1.8"", ""time_elapsed"": 1370109, ""questions"": ""[\""How many flights are there per round?\"",\""True or false: The hidden values will change each time I start a new round.\"",\""How much does it cost to observe each hidden value?\"",\""How many hidden values am I allowed to observe in each round?\"",\""Which statement is TRUE?\"",\""True of false: The duration of the delay is proportional to how much more money I could have earned by planning and deciding better.\""]"", ""correct"": [false, true, true, false, true, true], ""trial_index"": 17}"
A174BCWX0VMM1B:3HVVDCPGTES87MMNHGHALKY9MI0TYY,18,1493613587836,"{""rt"": 4464, ""trial_type"": ""instructions"", ""view_history"": ""[{\""page_index\"":0,\""viewing_time\"":1527},{\""page_index\"":1,\""viewing_time\"":1031},{\""page_index\"":2,\""viewing_time\"":1222},{\""page_index\"":3,\""viewing_time\"":682}]"", ""internal_node_id"": ""0.0-0.9-0.9"", ""time_elapsed"": 1375576, ""trial_index"": 18}"
A174BCWX0VMM1B:3HVVDCPGTES87MMNHGHALKY9MI0TYY,19,1493613595924,"{""rt"": 6164, ""trial_type"": ""survey-multi-choice"", ""responses"": ""[\""1\"",\""True\"",\""$0.10\"",\""At most 10\"",\""My earnings for each round are equal to the <i>sum</i> of the values of all locations I visit (minus the cost of making observations), and I will actually be paid 5% the earnings from one of the 8 rounds.\"",\""True\""]"", ""internal_node_id"": ""0.0-0.9-1.9"", ""time_elapsed"": 1383663, ""questions"": ""[\""How many flights are there per round?\"",\""True or false: The hidden values will change each time I start a new round.\"",\""How much does it cost to observe each hidden value?\"",\""How many hidden values am I allowed to observe in each round?\"",\""Which statement is TRUE?\"",\""True of false: The duration of the delay is proportional to how much more money I could have earned by planning and deciding better.\""]"", ""correct"": [false, true, true, false, true, true], ""trial_index"": 19}"
A174BCWX0VMM1B:3HVVDCPGTES87MMNHGHALKY9MI0TYY,20,1493613600643,"{""rt"": 3716, ""trial_type"": ""instructions"", ""view_history"": ""[{\""page_index\"":0,\""viewing_time\"":1663},{\""page_index\"":1,\""viewing_time\"":904},{\""page_index\"":2,\""viewing_time\"":514},{\""page_index\"":3,\""viewing_time\"":632}]"", ""internal_node_id"": ""0.0-0.10-0.10"", ""time_elapsed"": 1388382, ""trial_index"": 20}"
A174BCWX0VMM1B:3HVVDCPGTES87MMNHGHALKY9MI0TYY,21,1493613609696,"{""rt"": 6878, ""trial_type"": ""survey-multi-choice"", ""responses"": ""[\""1\"",\""True\"",\""$0.10\"",\""At most 15\"",\""My earnings for each round are equal to the <i>sum</i> of the values of all locations I visit (minus the cost of making observations), and I will actually be paid 5% the earnings from one of the 8 rounds.\"",\""True\""]"", ""internal_node_id"": ""0.0-0.10-1.10"", ""time_elapsed"": 1397436, ""questions"": ""[\""How many flights are there per round?\"",\""True or false: The hidden values will change each time I start a new round.\"",\""How much does it cost to observe each hidden value?\"",\""How many hidden values am I allowed to observe in each round?\"",\""Which statement is TRUE?\"",\""True of false: The duration of the delay is proportional to how much more money I could have earned by planning and deciding better.\""]"", ""correct"": [false, true, true, false, true, true], ""trial_index"": 21}"
A174BCWX0VMM1B:3HVVDCPGTES87MMNHGHALKY9MI0TYY,22,1493613615596,"{""rt"": 4896, ""trial_type"": ""instructions"", ""view_history"": ""[{\""page_index\"":0,\""viewing_time\"":1420},{\""page_index\"":1,\""viewing_time\"":940},{\""page_index\"":2,\""viewing_time\"":1048},{\""page_index\"":3,\""viewing_time\"":1486}]"", ""internal_node_id"": ""0.0-0.11-0.11"", ""time_elapsed"": 1403336, ""trial_index"": 22}"
A174BCWX0VMM1B:3HVVDCPGTES87MMNHGHALKY9MI0TYY,23,1493613635287,"{""rt"": 17462, ""trial_type"": ""survey-multi-choice"", ""responses"": ""[\""1\"",\""True\"",\""$0.10\"",\""As many or as few as I wish\"",\""My earnings for each round are equal to the value of one of the locations I visit (minus the cost of making observations), and I will actually be paid the earnings from one of the 8 rounds.\"",\""True\""]"", ""internal_node_id"": ""0.0-0.11-1.11"", ""time_elapsed"": 1423026, ""questions"": ""[\""How many flights are there per round?\"",\""True or false: The hidden values will change each time I start a new round.\"",\""How much does it cost to observe each hidden value?\"",\""How many hidden values am I allowed to observe in each round?\"",\""Which statement is TRUE?\"",\""True of false: The duration of the delay is proportional to how much more money I could have earned by planning and deciding better.\""]"", ""correct"": [false, true, true, true, false, true], ""trial_index"": 23}"
A174BCWX0VMM1B:3HVVDCPGTES87MMNHGHALKY9MI0TYY,24,1493613639306,"{""rt"": 3015, ""trial_type"": ""instructions"", ""view_history"": ""[{\""page_index\"":0,\""viewing_time\"":1221},{\""page_index\"":1,\""viewing_time\"":695},{\""page_index\"":2,\""viewing_time\"":539},{\""page_index\"":3,\""viewing_time\"":558}]"", ""internal_node_id"": ""0.0-0.12-0.12"", ""time_elapsed"": 1427045, ""trial_index"": 24}"
A174BCWX0VMM1B:3HVVDCPGTES87MMNHGHALKY9MI0TYY,25,1493613657886,"{""rt"": 16612, ""trial_type"": ""survey-multi-choice"", ""responses"": ""[\""1\"",\""True\"",\""$0.10\"",\""As many or as few as I wish\"",\""My earnings for each round are equal to the value of one of the locations I visit (minus the cost of making observations), but these earnings aren't real money.\"",\""True\""]"", ""internal_node_id"": ""0.0-0.12-1.12"", ""time_elapsed"": 1445625, ""questions"": ""[\""How many flights are there per round?\"",\""True or false: The hidden values will change each time I start a new round.\"",\""How much does it cost to observe each hidden value?\"",\""How many hidden values am I allowed to observe in each round?\"",\""Which statement is TRUE?\"",\""True of false: The duration of the delay is proportional to how much more money I could have earned by planning and deciding better.\""]"", ""correct"": [false, true, true, true, false, true], ""trial_index"": 25}"
A174BCWX0VMM1B:3HVVDCPGTES87MMNHGHALKY9MI0TYY,26,1493613661779,"{""rt"": 2890, ""trial_type"": ""instructions"", ""view_history"": ""[{\""page_index\"":0,\""viewing_time\"":1120},{\""page_index\"":1,\""viewing_time\"":687},{\""page_index\"":2,\""viewing_time\"":520},{\""page_index\"":3,\""viewing_time\"":561}]"", ""internal_node_id"": ""0.0-0.13-0.13"", ""time_elapsed"": 1449519, ""trial_index"": 26}"
A174BCWX0VMM1B:3HVVDCPGTES87MMNHGHALKY9MI0TYY,27,1493613691992,"{""rt"": 28001, ""trial_type"": ""survey-multi-choice"", ""responses"": ""[\""1\"",\""False\"",\""$0.10\"",\""As many or as few as I wish\"",\""My earnings for each round are equal to the <i>sum</i> of the values of all locations I visit (minus the cost of making observations), and I will actually be paid 5% the earnings from one of the 8 rounds.\"",\""True\""]"", ""internal_node_id"": ""0.0-0.13-1.13"", ""time_elapsed"": 1479732, ""questions"": ""[\""How many flights are there per round?\"",\""True or false: The hidden values will change each time I start a new round.\"",\""How much does it cost to observe each hidden value?\"",\""How many hidden values am I allowed to observe in each round?\"",\""Which statement is TRUE?\"",\""True of false: The duration of the delay is proportional to how much more money I could have earned by planning and deciding better.\""]"", ""correct"": [false, false, true, true, true, true], ""trial_index"": 27}"
A174BCWX0VMM1B:3HVVDCPGTES87MMNHGHALKY9MI0TYY,28,1493613709588,"{""rt"": 16592, ""trial_type"": ""instructions"", ""view_history"": ""[{\""page_index\"":0,\""viewing_time\"":1200},{\""page_index\"":1,\""viewing_time\"":858},{\""page_index\"":2,\""viewing_time\"":3767},{\""page_index\"":3,\""viewing_time\"":10765}]"", ""internal_node_id"": ""0.0-0.14-0.14"", ""time_elapsed"": 1497328, ""trial_index"": 28}"
A174BCWX0VMM1B:3HVVDCPGTES87MMNHGHALKY9MI0TYY,29,1493613769014,"{""rt"": 56071, ""trial_type"": ""survey-multi-choice"", ""responses"": ""[\""1\"",\""True\"",\""$0.10\"",\""As many or as few as I wish\"",\""My earnings for each round are equal to the <i>sum</i> of the values of all locations I visit (minus the cost of making observations), but these earnings aren't real money.\"",\""True\""]"", ""internal_node_id"": ""0.0-0.14-1.14"", ""time_elapsed"": 1556754, ""questions"": ""[\""How many flights are there per round?\"",\""True or false: The hidden values will change each time I start a new round.\"",\""How much does it cost to observe each hidden value?\"",\""How many hidden values am I allowed to observe in each round?\"",\""Which statement is TRUE?\"",\""True of false: The duration of the delay is proportional to how much more money I could have earned by planning and deciding better.\""]"", ""correct"": [false, true, true, true, false, true], ""trial_index"": 29}"
A174BCWX0VMM1B:3HVVDCPGTES87MMNHGHALKY9MI0TYY,30,1493613773200,"{""rt"": 3181, ""trial_type"": ""instructions"", ""view_history"": ""[{\""page_index\"":0,\""viewing_time\"":1111},{\""page_index\"":1,\""viewing_time\"":817},{\""page_index\"":2,\""viewing_time\"":581},{\""page_index\"":3,\""viewing_time\"":670}]"", ""internal_node_id"": ""0.0-0.15-0.15"", ""time_elapsed"": 1560939, ""trial_index"": 30}"
A174BCWX0VMM1B:3HVVDCPGTES87MMNHGHALKY9MI0TYY,31,1493613928361,"{""rt"": 152910, ""trial_type"": ""survey-multi-choice"", ""responses"": ""[\""2\"",\""True\"",\""$0.10\"",\""As many or as few as I wish\"",\""My earnings for each round are equal to the <i>sum</i> of the values of all locations I visit (minus the cost of making observations), and I will actually be paid 5% the earnings from one of the 8 rounds.\"",\""True\""]"", ""internal_node_id"": ""0.0-0.15-1.15"", ""time_elapsed"": 1716101, ""questions"": ""[\""How many flights are there per round?\"",\""True or false: The hidden values will change each time I start a new round.\"",\""How much does it cost to observe each hidden value?\"",\""How many hidden values am I allowed to observe in each round?\"",\""Which statement is TRUE?\"",\""True of false: The duration of the delay is proportional to how much more money I could have earned by planning and deciding better.\""]"", ""correct"": [false, true, true, true, true, true], ""trial_index"": 31}"
A174BCWX0VMM1B:3HVVDCPGTES87MMNHGHALKY9MI0TYY,32,1493613932441,"{""rt"": 3076, ""trial_type"": ""instructions"", ""view_history"": ""[{\""page_index\"":0,\""viewing_time\"":1313},{\""page_index\"":1,\""viewing_time\"":576},{\""page_index\"":2,\""viewing_time\"":577},{\""page_index\"":3,\""viewing_time\"":608}]"", ""internal_node_id"": ""0.0-0.16-0.16"", ""time_elapsed"": 1720180, ""trial_index"": 32}"
A174BCWX0VMM1B:3HVVDCPGTES87MMNHGHALKY9MI0TYY,33,1493613942307,"{""rt"": 8800, ""trial_type"": ""survey-multi-choice"", ""responses"": ""[\""3\"",\""True\"",\""$0.10\"",\""As many or as few as I wish\"",\""My earnings for each round are equal to the <i>sum</i> of the values of all locations I visit (minus the cost of making observations), and I will actually be paid 5% the earnings from one of the 8 rounds.\"",\""True\""]"", ""internal_node_id"": ""0.0-0.16-1.16"", ""time_elapsed"": 1730047, ""questions"": ""[\""How many flights are there per round?\"",\""True or false: The hidden values will change each time I start a new round.\"",\""How much does it cost to observe each hidden value?\"",\""How many hidden values am I allowed to observe in each round?\"",\""Which statement is TRUE?\"",\""True of false: The duration of the delay is proportional to how much more money I could have earned by planning and deciding better.\""]"", ""correct"": [true, true, true, true, true, true], ""trial_index"": 33}"
A174BCWX0VMM1B:3HVVDCPGTES87MMNHGHALKY9MI0TYY,34,1493613994909,"{""rt"": [6566, 3448, 4560], ""trial_type"": ""graph"", ""infoCost"": 0.1, ""feedback"": true, ""minTime"": 45, ""delays"": [-4, -4, -4], ""actionTimes"": [6568, 11964, 18462], ""time_elapsed"": 1782648, ""actions"": [""right"", ""right"", ""up""], ""trialIndex"": 1, ""score"": 22, ""trial_index"": 34, ""internal_node_id"": ""0.0-1.0-0.0"", ""clickTimes"": [], ""path"": [1, 2, 6, 10], ""trialID"": 7, ""clicks"": [], ""condition"": 4}"
A174BCWX0VMM1B:3HVVDCPGTES87MMNHGHALKY9MI0TYY,35,1493614125623,"{""rt"": [3034, 10758, 3018], ""trial_type"": ""graph"", ""infoCost"": 0.1, ""feedback"": true, ""minTime"": 45, ""delays"": [80, -4, -4], ""actionTimes"": [3035, 95743, 100724], ""time_elapsed"": 1913363, ""actions"": [""down"", ""down"", ""left""], ""trialIndex"": 2, ""score"": 6, ""trial_index"": 35, ""internal_node_id"": ""0.0-1.0-1.0"", ""clickTimes"": [], ""path"": [1, 5, 9, 16], ""trialID"": 3, ""clicks"": [], ""condition"": 4}"
A174BCWX0VMM1B:3HVVDCPGTES87MMNHGHALKY9MI0TYY,36,1493614182141,"{""rt"": [2292, 2755, 3], ""trial_type"": ""graph"", ""infoCost"": 0.1, ""feedback"": true, ""minTime"": 45, ""delays"": [-4, -4, -4], ""actionTimes"": [2292, 7031, 9023], ""time_elapsed"": 1969881, ""actions"": [""up"", ""up"", ""left""], ""trialIndex"": 3, ""score"": 37, ""trial_index"": 36, ""internal_node_id"": ""0.0-1.0-2.0"", ""clickTimes"": [], ""path"": [1, 3, 7, 12], ""trialID"": 6, ""clicks"": [], ""condition"": 4}"
A174BCWX0VMM1B:3HVVDCPGTES87MMNHGHALKY9MI0TYY,37,1493614344319,"{""rt"": [4054, 3185, 6], ""trial_type"": ""graph"", ""infoCost"": 0.1, ""feedback"": true, ""minTime"": 45, ""delays"": [108, -4, -4], ""actionTimes"": [4055, 117231, 119230], ""time_elapsed"": 2132058, ""actions"": [""up"", ""up"", ""right""], ""trialIndex"": 4, ""score"": 15, ""trial_index"": 37, ""internal_node_id"": ""0.0-1.0-3.0"", ""clickTimes"": [], ""path"": [1, 3, 7, 13], ""trialID"": 0, ""clicks"": [], ""condition"": 4}"
A174BCWX0VMM1B:3HVVDCPGTES87MMNHGHALKY9MI0TYY,38,1493614547982,"{""rt"": [1074, 19827, 3], ""trial_type"": ""graph"", ""infoCost"": 0.1, ""feedback"": true, ""minTime"": 45, ""delays"": [113, -4, -4], ""actionTimes"": [1075, 135872, 137931], ""time_elapsed"": 2335721, ""actions"": [""left"", ""left"", ""up""], ""trialIndex"": 5, ""score"": 16, ""trial_index"": 38, ""internal_node_id"": ""0.0-1.0-4.0"", ""clickTimes"": [], ""path"": [1, 4, 8, 14], ""trialID"": 4, ""clicks"": [], ""condition"": 4}"
A174BCWX0VMM1B:3HVVDCPGTES87MMNHGHALKY9MI0TYY,39,1493614650727,"{""rt"": [728, 1122, 4], ""trial_type"": ""graph"", ""infoCost"": 0.1, ""feedback"": true, ""minTime"": 45, ""delays"": [53, -4, -4], ""actionTimes"": [728, 56845, 58868], ""time_elapsed"": 2438467, ""actions"": [""right"", ""right"", ""up""], ""trialIndex"": 6, ""score"": 8, ""trial_index"": 39, ""internal_node_id"": ""0.0-1.0-5.0"", ""clickTimes"": [], ""path"": [1, 2, 6, 10], ""trialID"": 1, ""clicks"": [], ""condition"": 4}"
A174BCWX0VMM1B:3HVVDCPGTES87MMNHGHALKY9MI0TYY,40,1493614847068,"{""rt"": [5176, 3687, 4], ""trial_type"": ""graph"", ""infoCost"": 0.1, ""feedback"": true, ""minTime"": 45, ""delays"": [144, -4, -4], ""actionTimes"": [5177, 154840, 156807], ""time_elapsed"": 2634807, ""actions"": [""up"", ""up"", ""right""], ""trialIndex"": 7, ""score"": 1, ""trial_index"": 40, ""internal_node_id"": ""0.0-1.0-6.0"", ""clickTimes"": [], ""path"": [1, 3, 7, 13], ""trialID"": 5, ""clicks"": [], ""condition"": 4}"
A174BCWX0VMM1B:3HVVDCPGTES87MMNHGHALKY9MI0TYY,41,1493615000676,"{""rt"": [4920, 3170, 4], ""trial_type"": ""graph"", ""infoCost"": 0.1, ""feedback"": true, ""minTime"": 45, ""delays"": [104, -4, -4], ""actionTimes"": [4920, 114066, 115927], ""time_elapsed"": 2788416, ""actions"": [""left"", ""left"", ""up""], ""trialIndex"": 8, ""score"": 10, ""trial_index"": 41, ""internal_node_id"": ""0.0-1.0-7.0"", ""clickTimes"": [], ""path"": [1, 4, 8, 14], ""trialID"": 2, ""clicks"": [], ""condition"": 4}"
A174BCWX0VMM1B:3HVVDCPGTES87MMNHGHALKY9MI0TYY,42,1493615023656,"{""rt"": 21931, ""trial_type"": ""button-response"", ""button_pressed"": 0, ""stimulus"": ""<h1 id=\""thiscompletesthehit\"">This completes the HIT</h1>\n\n<p>One or your trials has been randomly selected and we will pay you 5% of your profit on that trial as a bonus. You will be awarded a bonus of $0.50</p>"", ""internal_node_id"": ""0.0-2.0"", ""time_elapsed"": 2811396, ""trial_index"": 42}"
A1FLNAFLLO3UPK:3LKC68YZ3A3O5PMF6YDN6D76C2HWOE,0,1493608246050,"{""rt"": 435676, ""trial_type"": ""instructions"", ""view_history"": ""[{\""page_index\"":0,\""viewing_time\"":43772},{\""page_index\"":1,\""viewing_time\"":308108},{\""page_index\"":2,\""viewing_time\"":25864},{\""page_index\"":3,\""viewing_time\"":20189},{\""page_index\"":2,\""viewing_time\"":2717},{\""page_index\"":1,\""viewing_time\"":2732},{\""page_index\"":0,\""viewing_time\"":2463},{\""page_index\"":1,\""viewing_time\"":7229},{\""page_index\"":2,\""viewing_time\"":11743},{\""page_index\"":3,\""viewing_time\"":10858}]"", ""internal_node_id"": ""0.0-0.0-0.0"", ""time_elapsed"": 435678, ""trial_index"": 0}"
A1FLNAFLLO3UPK:3LKC68YZ3A3O5PMF6YDN6D76C2HWOE,1,1493608345262,"{""rt"": 91844, ""trial_type"": ""survey-multi-choice"", ""responses"": ""[\""1\"",\""True\"",\""$0.10\"",\""As many or as few as I wish\"",\""My earnings for each round are equal to the <i>sum</i> of the values of all locations I visit (minus the cost of making observations), and I will actually be paid 5% the earnings from one of the 8 rounds.\"",\""True\""]"", ""internal_node_id"": ""0.0-0.0-1.0"", ""time_elapsed"": 534890, ""questions"": ""[\""How many flights are there per round?\"",\""True or false: The hidden values will change each time I start a new round.\"",\""How much does it cost to observe each hidden value?\"",\""How many hidden values am I allowed to observe in each round?\"",\""Which statement is TRUE?\"",\""True of false: The duration of the delay is proportional to how much more money I could have earned by planning and deciding better.\""]"", ""correct"": [false, true, true, true, true, true], ""trial_index"": 1}"
A1FLNAFLLO3UPK:3LKC68YZ3A3O5PMF6YDN6D76C2HWOE,2,1493608371859,"{""rt"": 25592, ""trial_type"": ""instructions"", ""view_history"": ""[{\""page_index\"":0,\""viewing_time\"":17904},{\""page_index\"":1,\""viewing_time\"":5563},{\""page_index\"":2,\""viewing_time\"":1046},{\""page_index\"":3,\""viewing_time\"":1078}]"", ""internal_node_id"": ""0.0-0.1-0.1"", ""time_elapsed"": 561486, ""trial_index"": 2}"
A1FLNAFLLO3UPK:3LKC68YZ3A3O5PMF6YDN6D76C2HWOE,3,1493608449048,"{""rt"": 76137, ""trial_type"": ""survey-multi-choice"", ""responses"": ""[\""3\"",\""True\"",\""$0.10\"",\""As many or as few as I wish\"",\""My earnings for each round are equal to the <i>sum</i> of the values of all locations I visit (minus the cost of making observations), and I will actually be paid 5% the earnings from one of the 8 rounds.\"",\""True\""]"", ""internal_node_id"": ""0.0-0.1-1.1"", ""time_elapsed"": 638676, ""questions"": ""[\""How many flights are there per round?\"",\""True or false: The hidden values will change each time I start a new round.\"",\""How much does it cost to observe each hidden value?\"",\""How many hidden values am I allowed to observe in each round?\"",\""Which statement is TRUE?\"",\""True of false: The duration of the delay is proportional to how much more money I could have earned by planning and deciding better.\""]"", ""correct"": [true, true, true, true, true, true], ""trial_index"": 3}"
A1FLNAFLLO3UPK:3LKC68YZ3A3O5PMF6YDN6D76C2HWOE,4,1493608500546,"{""rt"": [29193, 1290, 619], ""trial_type"": ""graph"", ""infoCost"": 0.1, ""feedback"": true, ""minTime"": 45, ""delays"": [-4, -4, -4], ""actionTimes"": [29194, 31420, 32980], ""time_elapsed"": 690173, ""actions"": [""left"", ""left"", ""up""], ""trialIndex"": 1, ""score"": 38.6, ""trial_index"": 4, ""internal_node_id"": ""0.0-1.0-0.0"", ""clickTimes"": [2511, 3580, 4562, 5582, 8927, 11551, 12459, 13313, 14543, 15238, 19218, 20749, 21814, 24174], ""path"": [1, 4, 8, 14], ""trialID"": 0, ""clicks"": [""4"", ""8"", ""14"", ""15"", ""5"", ""9"", ""16"", ""17"", ""2"", ""6"", ""11"", ""3"", ""7"", ""13""], ""condition"": 4}"
A1FLNAFLLO3UPK:3LKC68YZ3A3O5PMF6YDN6D76C2HWOE,5,1493608548490,"{""rt"": [25982, 11, 2], ""trial_type"": ""graph"", ""infoCost"": 0.1, ""feedback"": true, ""minTime"": 45, ""delays"": [-4, -4, -4], ""actionTimes"": [25982, 26773, 27721], ""time_elapsed"": 738117, ""actions"": [""left"", ""left"", ""up""], ""trialIndex"": 2, ""score"": 32.5, ""trial_index"": 5, ""internal_node_id"": ""0.0-1.0-1.0"", ""clickTimes"": [1613, 2561, 3470, 4340, 6035, 6605, 7391, 8476, 14231, 15143, 16014, 17662, 18319, 19147, 19810], ""path"": [1, 4, 8, 14], ""trialID"": 5, ""clicks"": [""4"", ""8"", ""14"", ""15"", ""5"", ""9"", ""16"", ""17"", ""3"", ""7"", ""12"", ""2"", ""6"", ""11"", ""10""], ""condition"": 4}"
A1FLNAFLLO3UPK:3LKC68YZ3A3O5PMF6YDN6D76C2HWOE,6,1493608596363,"{""rt"": [25943, 615, 67], ""trial_type"": ""graph"", ""infoCost"": 0.1, ""feedback"": true, ""minTime"": 45, ""delays"": [-4, -4, -4], ""actionTimes"": [25943, 27334, 28342], ""time_elapsed"": 785990, ""actions"": [""right"", ""right"", ""up""], ""trialIndex"": 3, ""score"": 32.5, ""trial_index"": 6, ""internal_node_id"": ""0.0-1.0-2.0"", ""clickTimes"": [749, 1357, 2218, 2941, 4044, 4708, 5486, 6110, 7010, 7793, 8848, 9527, 16263, 19562, 21230], ""path"": [1, 2, 6, 10], ""trialID"": 2, ""clicks"": [""4"", ""8"", ""14"", ""15"", ""5"", ""9"", ""16"", ""17"", ""2"", ""6"", ""3"", ""7"", ""11"", ""10"", ""13""], ""condition"": 4}"
A1FLNAFLLO3UPK:3LKC68YZ3A3O5PMF6YDN6D76C2HWOE,7,1493608643546,"{""rt"": [23182, 568, 2], ""trial_type"": ""graph"", ""infoCost"": 0.1, ""feedback"": true, ""minTime"": 45, ""delays"": [-4, -4, -4], ""actionTimes"": [23182, 24295, 25158], ""time_elapsed"": 833173, ""actions"": [""right"", ""right"", ""up""], ""trialIndex"": 4, ""score"": 32.4, ""trial_index"": 7, ""internal_node_id"": ""0.0-1.0-3.0"", ""clickTimes"": [1260, 1854, 3342, 4449, 4969, 5907, 6585, 7709, 8699, 9183, 9796, 11397, 12559, 13310, 15436, 16946], ""path"": [1, 2, 6, 10], ""trialID"": 3, ""clicks"": [""4"", ""8"", ""15"", ""5"", ""9"", ""16"", ""17"", ""14"", ""3"", ""7"", ""12"", ""13"", ""2"", ""6"", ""10"", ""11""], ""condition"": 4}"
A1FLNAFLLO3UPK:3LKC68YZ3A3O5PMF6YDN6D76C2HWOE,8,1493608695340,"{""rt"": [9711, 3, 2], ""trial_type"": ""graph"", ""infoCost"": 0.1, ""feedback"": true, ""minTime"": 45, ""delays"": [-4, -4, -4], ""actionTimes"": [9713, 10594, 11548], ""time_elapsed"": 884967, ""actions"": [""up"", ""up"", ""left""], ""trialIndex"": 5, ""score"": 36.2, ""trial_index"": 8, ""internal_node_id"": ""0.0-1.0-4.0"", ""clickTimes"": [933, 1664, 2862, 7798, 17735, 22996, 23911, 24627], ""path"": [1, 3, 7, 12], ""trialID"": 6, ""clicks"": [""3"", ""7"", ""12"", ""13"", ""14"", ""4"", ""5"", ""2""], ""condition"": 4}"
A1FLNAFLLO3UPK:3LKC68YZ3A3O5PMF6YDN6D76C2HWOE,9,1493608743052,"{""rt"": [18986, 1, 2], ""trial_type"": ""graph"", ""infoCost"": 0.1, ""feedback"": true, ""minTime"": 45, ""delays"": [-4, -4, -4], ""actionTimes"": [18987, 19792, 20742], ""time_elapsed"": 932679, ""actions"": [""down"", ""down"", ""right""], ""trialIndex"": 6, ""score"": 40.8, ""trial_index"": 9, ""internal_node_id"": ""0.0-1.0-5.0"", ""clickTimes"": [2398, 3174, 7307, 8151, 9679, 10281, 11925, 12789, 27558, 28554, 29926, 31104], ""path"": [1, 5, 9, 17], ""trialID"": 4, ""clicks"": [""4"", ""8"", ""15"", ""14"", ""5"", ""9"", ""16"", ""17"", ""2"", ""3"", ""7"", ""6""], ""condition"": 4}"
A1FLNAFLLO3UPK:3LKC68YZ3A3O5PMF6YDN6D76C2HWOE,10,1493608791291,"{""rt"": [22807, 403, 1], ""trial_type"": ""graph"", ""infoCost"": 0.1, ""feedback"": true, ""minTime"": 45, ""delays"": [-4, -4, -4], ""actionTimes"": [22807, 23718, 24602], ""time_elapsed"": 980917, ""actions"": [""right"", ""right"", ""up""], ""trialIndex"": 7, ""score"": 20.4, ""trial_index"": 10, ""internal_node_id"": ""0.0-1.0-6.0"", ""clickTimes"": [1363, 1961, 2790, 3598, 4608, 5252, 6078, 6686, 9395, 10284, 12428, 13597, 14831, 16283, 17311, 18183], ""path"": [1, 2, 6, 10], ""trialID"": 7, ""clicks"": [""4"", ""8"", ""3"", ""7"", ""2"", ""6"", ""5"", ""9"", ""13"", ""12"", ""10"", ""11"", ""17"", ""16"", ""15"", ""14""], ""condition"": 4}"
A1FLNAFLLO3UPK:3LKC68YZ3A3O5PMF6YDN6D76C2HWOE,11,1493608839096,"{""rt"": [14650, 1, 2], ""trial_type"": ""graph"", ""infoCost"": 0.1, ""feedback"": true, ""minTime"": 45, ""delays"": [-4, -4, -4], ""actionTimes"": [14650, 15514, 16484], ""time_elapsed"": 1028724, ""actions"": [""down"", ""down"", ""left""], ""trialIndex"": 8, ""score"": 44.8, ""trial_index"": 11, ""internal_node_id"": ""0.0-1.0-7.0"", ""clickTimes"": [1083, 1701, 2574, 3183, 4213, 4737, 5637, 6441, 7527, 8103, 8770, 9429], ""path"": [1, 5, 9, 16], ""trialID"": 1, ""clicks"": [""4"", ""8"", ""3"", ""7"", ""2"", ""6"", ""13"", ""12"", ""5"", ""9"", ""16"", ""17""], ""condition"": 4}"
A1FLNAFLLO3UPK:3LKC68YZ3A3O5PMF6YDN6D76C2HWOE,12,1493608847131,"{""rt"": 7009, ""trial_type"": ""button-response"", ""button_pressed"": 0, ""stimulus"": ""<h1 id=\""thiscompletesthehit\"">This completes the HIT</h1>\n\n<p>One or your trials has been randomly selected and we will pay you 5% of your profit on that trial as a bonus. You will be awarded a bonus of $1.63</p>"", ""internal_node_id"": ""0.0-2.0"", ""time_elapsed"": 1036758, ""trial_index"": 12}"
A1GXFMAC759VRM:3X4MXAO0BGOR22EVYQUR08CBNP1RWI,0,1493607229103,"{""rt"": 107731, ""trial_type"": ""instructions"", ""view_history"": ""[{\""page_index\"":0,\""viewing_time\"":43669},{\""page_index\"":1,\""viewing_time\"":32674},{\""page_index\"":2,\""viewing_time\"":14356},{\""page_index\"":3,\""viewing_time\"":17030}]"", ""internal_node_id"": ""0.0-0.0-0.0"", ""time_elapsed"": 107732, ""trial_index"": 0}"
A1GXFMAC759VRM:3X4MXAO0BGOR22EVYQUR08CBNP1RWI,1,1493607268537,"{""rt"": 35673, ""trial_type"": ""survey-multi-choice"", ""responses"": ""[\""4\"",\""True\"",\""$0.10\"",\""As many or as few as I wish\"",\""My earnings for each round are equal to the <i>sum</i> of the values of all locations I visit (minus the cost of making observations), and I will actually be paid 5% the earnings from one of the 8 rounds.\"",\""True\""]"", ""internal_node_id"": ""0.0-0.0-1.0"", ""time_elapsed"": 147167, ""questions"": ""[\""How many flights are there per round?\"",\""True or false: The hidden values will change each time I start a new round.\"",\""How much does it cost to observe each hidden value?\"",\""How many hidden values am I allowed to observe in each round?\"",\""Which statement is TRUE?\"",\""True of false: The duration of the delay is proportional to how much more money I could have earned by planning and deciding better.\""]"", ""correct"": [false, true, true, true, true, true], ""trial_index"": 1}"
A1GXFMAC759VRM:3X4MXAO0BGOR22EVYQUR08CBNP1RWI,2,1493607289646,"{""rt"": 20104, ""trial_type"": ""instructions"", ""view_history"": ""[{\""page_index\"":0,\""viewing_time\"":9477},{\""page_index\"":1,\""viewing_time\"":7882},{\""page_index\"":2,\""viewing_time\"":1433},{\""page_index\"":3,\""viewing_time\"":1311}]"", ""internal_node_id"": ""0.0-0.1-0.1"", ""time_elapsed"": 168276, ""trial_index"": 2}"
A1GXFMAC759VRM:3X4MXAO0BGOR22EVYQUR08CBNP1RWI,3,1493607307032,"{""rt"": 14540, ""trial_type"": ""survey-multi-choice"", ""responses"": ""[\""1\"",\""True\"",\""$0.10\"",\""As many or as few as I wish\"",\""My earnings for each round are equal to the <i>sum</i> of the values of all locations I visit (minus the cost of making observations), and I will actually be paid 5% the earnings from one of the 8 rounds.\"",\""True\""]"", ""internal_node_id"": ""0.0-0.1-1.1"", ""time_elapsed"": 185662, ""questions"": ""[\""How many flights are there per round?\"",\""True or false: The hidden values will change each time I start a new round.\"",\""How much does it cost to observe each hidden value?\"",\""How many hidden values am I allowed to observe in each round?\"",\""Which statement is TRUE?\"",\""True of false: The duration of the delay is proportional to how much more money I could have earned by planning and deciding better.\""]"", ""correct"": [false, true, true, true, true, true], ""trial_index"": 3}"
A1GXFMAC759VRM:3X4MXAO0BGOR22EVYQUR08CBNP1RWI,4,1493607317283,"{""rt"": 9248, ""trial_type"": ""instructions"", ""view_history"": ""[{\""page_index\"":0,\""viewing_time\"":1391},{\""page_index\"":1,\""viewing_time\"":1906},{\""page_index\"":2,\""viewing_time\"":4544},{\""page_index\"":3,\""viewing_time\"":1406}]"", ""internal_node_id"": ""0.0-0.2-0.2"", ""time_elapsed"": 195913, ""trial_index"": 4}"
A1GXFMAC759VRM:3X4MXAO0BGOR22EVYQUR08CBNP1RWI,5,1493607335705,"{""rt"": 17398, ""trial_type"": ""survey-multi-choice"", ""responses"": ""[\""3\"",\""True\"",\""$0.10\"",\""As many or as few as I wish\"",\""My earnings for each round are equal to the <i>sum</i> of the values of all locations I visit (minus the cost of making observations), and I will actually be paid 5% the earnings from one of the 8 rounds.\"",\""True\""]"", ""internal_node_id"": ""0.0-0.2-1.2"", ""time_elapsed"": 214334, ""questions"": ""[\""How many flights are there per round?\"",\""True or false: The hidden values will change each time I start a new round.\"",\""How much does it cost to observe each hidden value?\"",\""How many hidden values am I allowed to observe in each round?\"",\""Which statement is TRUE?\"",\""True of false: The duration of the delay is proportional to how much more money I could have earned by planning and deciding better.\""]"", ""correct"": [true, true, true, true, true, true], ""trial_index"": 5}"
A1GXFMAC759VRM:3X4MXAO0BGOR22EVYQUR08CBNP1RWI,6,1493607387149,"{""rt"": [14778, 1, 1], ""trial_type"": ""graph"", ""infoCost"": 0.1, ""feedback"": true, ""minTime"": 45, ""delays"": [-4, -4, -4], ""actionTimes"": [14778, 15657, 16570], ""time_elapsed"": 265779, ""actions"": [""left"", ""left"", ""up""], ""trialIndex"": 1, ""score"": 39.5, ""trial_index"": 6, ""internal_node_id"": ""0.0-1.0-0.0"", ""clickTimes"": [4498, 5355, 6060, 11122, 24296], ""path"": [1, 4, 8, 14], ""trialID"": 0, ""clicks"": [""4"", ""8"", ""14"", ""15"", ""3""], ""condition"": 4}"
A1GXFMAC759VRM:3X4MXAO0BGOR22EVYQUR08CBNP1RWI,7,1493607439269,"{""rt"": [16230, 1, 1], ""trial_type"": ""graph"", ""infoCost"": 0.1, ""feedback"": true, ""minTime"": 45, ""delays"": [-4, -4, -4], ""actionTimes"": [16231, 17051, 17984], ""time_elapsed"": 317898, ""actions"": [""left"", ""left"", ""up""], ""trialIndex"": 2, ""score"": 32.7, ""trial_index"": 7, ""internal_node_id"": ""0.0-1.0-1.0"", ""clickTimes"": [2029, 2742, 3304, 3987, 5117, 5731, 6258, 6993, 7783, 8621, 9261, 9863, 10797], ""path"": [1, 4, 8, 14], ""trialID"": 5, ""clicks"": [""14"", ""8"", ""4"", ""15"", ""2"", ""6"", ""10"", ""11"", ""5"", ""3"", ""7"", ""13"", ""9""], ""condition"": 4}"
A1GXFMAC759VRM:3X4MXAO0BGOR22EVYQUR08CBNP1RWI,8,1493607487130,"{""rt"": [9476, 1, 0], ""trial_type"": ""graph"", ""infoCost"": 0.1, ""feedback"": true, ""minTime"": 45, ""delays"": [-4, -4, -4], ""actionTimes"": [9476, 10392, 11323], ""time_elapsed"": 365760, ""actions"": [""down"", ""down"", ""right""], ""trialIndex"": 3, ""score"": 41.2, ""trial_index"": 8, ""internal_node_id"": ""0.0-1.0-2.0"", ""clickTimes"": [937, 2259, 3392, 3894, 5798, 6389, 7297, 7960], ""path"": [1, 5, 9, 17], ""trialID"": 4, ""clicks"": [""14"", ""10"", ""6"", ""2"", ""5"", ""9"", ""16"", ""17""], ""condition"": 4}"
A1GXFMAC759VRM:3X4MXAO0BGOR22EVYQUR08CBNP1RWI,9,1493607537371,"{""rt"": [15330, 108, 3], ""trial_type"": ""graph"", ""infoCost"": 0.1, ""feedback"": true, ""minTime"": 45, ""delays"": [-4, -4, -4], ""actionTimes"": [15330, 16032, 16920], ""time_elapsed"": 416001, ""actions"": [""up"", ""up"", ""left""], ""trialIndex"": 4, ""score"": 35.6, ""trial_index"": 9, ""internal_node_id"": ""0.0-1.0-3.0"", ""clickTimes"": [2876, 3896, 4642, 5282, 6256, 6888, 7599, 8566, 9247, 9814, 10805, 12010, 12947, 13766], ""path"": [1, 3, 7, 12], ""trialID"": 6, ""clicks"": [""14"", ""10"", ""13"", ""12"", ""17"", ""16"", ""15"", ""11"", ""6"", ""2"", ""4"", ""8"", ""3"", ""7""], ""condition"": 4}"
A1GXFMAC759VRM:3X4MXAO0BGOR22EVYQUR08CBNP1RWI,10,1493607587320,"{""rt"": [12227, 1, 1], ""trial_type"": ""graph"", ""infoCost"": 0.1, ""feedback"": true, ""minTime"": 45, ""delays"": [-4, -4, -4], ""actionTimes"": [12228, 12941, 13879], ""time_elapsed"": 465950, ""actions"": [""right"", ""right"", ""up""], ""trialIndex"": 5, ""score"": 32.8, ""trial_index"": 10, ""internal_node_id"": ""0.0-1.0-4.0"", ""clickTimes"": [2017, 3047, 4126, 4967, 5488, 7007, 7727, 8367, 8832, 10879, 11495, 18613], ""path"": [1, 2, 6, 10], ""trialID"": 3, ""clicks"": [""14"", ""15"", ""16"", ""8"", ""4"", ""10"", ""11"", ""2"", ""6"", ""13"", ""12"", ""17""], ""condition"": 4}"
A1GXFMAC759VRM:3X4MXAO0BGOR22EVYQUR08CBNP1RWI,11,1493607637327,"{""rt"": [8093, 1, 1], ""trial_type"": ""graph"", ""infoCost"": 0.1, ""feedback"": true, ""minTime"": 45, ""delays"": [-4, -4, -4], ""actionTimes"": [8093, 8883, 9845], ""time_elapsed"": 515957, ""actions"": [""right"", ""right"", ""up""], ""trialIndex"": 6, ""score"": 33.2, ""trial_index"": 11, ""internal_node_id"": ""0.0-1.0-5.0"", ""clickTimes"": [2840, 3542, 4274, 5000, 5693, 6458, 6954, 7365], ""path"": [1, 2, 6, 10], ""trialID"": 2, ""clicks"": [""14"", ""15"", ""16"", ""17"", ""11"", ""10"", ""6"", ""2""], ""condition"": 4}"
A1GXFMAC759VRM:3X4MXAO0BGOR22EVYQUR08CBNP1RWI,12,1493607687222,"{""rt"": [9016, 1, 1], ""trial_type"": ""graph"", ""infoCost"": 0.1, ""feedback"": true, ""minTime"": 45, ""delays"": [-4, -4, -4], ""actionTimes"": [9016, 9933, 10946], ""time_elapsed"": 565852, ""actions"": [""down"", ""down"", ""left""], ""trialIndex"": 7, ""score"": 45.1, ""trial_index"": 12, ""internal_node_id"": ""0.0-1.0-6.0"", ""clickTimes"": [1029, 1829, 2907, 3734, 4758, 5439, 6335, 7615, 8183], ""path"": [1, 5, 9, 16], ""trialID"": 1, ""clicks"": [""14"", ""15"", ""11"", ""10"", ""13"", ""12"", ""16"", ""9"", ""5""], ""condition"": 4}"
A1GXFMAC759VRM:3X4MXAO0BGOR22EVYQUR08CBNP1RWI,13,1493607734660,"{""rt"": [12157, 1, 2], ""trial_type"": ""graph"", ""infoCost"": 0.1, ""feedback"": true, ""minTime"": 45, ""delays"": [-4, -4, -4], ""actionTimes"": [12159, 12950, 13889], ""time_elapsed"": 613290, ""actions"": [""right"", ""right"", ""up""], ""trialIndex"": 8, ""score"": 20.9, ""trial_index"": 13, ""internal_node_id"": ""0.0-1.0-7.0"", ""clickTimes"": [1056, 1886, 2828, 4090, 5560, 6134, 7074, 7666, 8216, 8824, 10405], ""path"": [1, 2, 6, 10], ""trialID"": 7, ""clicks"": [""13"", ""12"", ""16"", ""14"", ""8"", ""4"", ""10"", ""6"", ""11"", ""2"", ""17""], ""condition"": 4}"
A1GXFMAC759VRM:3X4MXAO0BGOR22EVYQUR08CBNP1RWI,14,1493607739170,"{""rt"": 3492, ""trial_type"": ""button-response"", ""button_pressed"": 0, ""stimulus"": ""<h1 id=\""thiscompletesthehit\"">This completes the HIT</h1>\n\n<p>One or your trials has been randomly selected and we will pay you 5% of your profit on that trial as a bonus. You will be awarded a bonus of $1.66</p>"", ""internal_node_id"": ""0.0-2.0"", ""time_elapsed"": 617800, ""trial_index"": 14}"
A1J21DM2Z753X4:3XUHV3NRVKYK0PL86KVOW4XSGJ1H5W,0,1493612241939,"{""rt"": 88093, ""trial_type"": ""instructions"", ""view_history"": ""[{\""page_index\"":0,\""viewing_time\"":27979},{\""page_index\"":1,\""viewing_time\"":28762},{\""page_index\"":2,\""viewing_time\"":15770},{\""page_index\"":3,\""viewing_time\"":15576}]"", ""internal_node_id"": ""0.0-0.0-0.0"", ""time_elapsed"": 88096, ""trial_index"": 0}"
A1J21DM2Z753X4:3XUHV3NRVKYK0PL86KVOW4XSGJ1H5W,1,1493612291325,"{""rt"": 44914, ""trial_type"": ""survey-multi-choice"", ""responses"": ""[\""2\"",\""True\"",\""$0.10\"",\""As many or as few as I wish\"",\""My earnings for each round are equal to the <i>sum</i> of the values of all locations I visit (minus the cost of making observations), and I will actually be paid 5% the earnings from one of the 8 rounds.\"",\""True\""]"", ""internal_node_id"": ""0.0-0.0-1.0"", ""time_elapsed"": 137480, ""questions"": ""[\""How many flights are there per round?\"",\""True or false: The hidden values will change each time I start a new round.\"",\""How much does it cost to observe each hidden value?\"",\""How many hidden values am I allowed to observe in each round?\"",\""Which statement is TRUE?\"",\""True of false: The duration of the delay is proportional to how much more money I could have earned by planning and deciding better.\""]"", ""correct"": [false, true, true, true, true, true], ""trial_index"": 1}"
A1J21DM2Z753X4:3XUHV3NRVKYK0PL86KVOW4XSGJ1H5W,2,1493612322170,"{""rt"": 29824, ""trial_type"": ""instructions"", ""view_history"": ""[{\""page_index\"":0,\""viewing_time\"":10486},{\""page_index\"":1,\""viewing_time\"":7224},{\""page_index\"":2,\""viewing_time\"":3398},{\""page_index\"":3,\""viewing_time\"":8714}]"", ""internal_node_id"": ""0.0-0.1-0.1"", ""time_elapsed"": 168321, ""trial_index"": 2}"
A1J21DM2Z753X4:3XUHV3NRVKYK0PL86KVOW4XSGJ1H5W,3,1493612338206,"{""rt"": 14956, ""trial_type"": ""survey-multi-choice"", ""responses"": ""[\""3\"",\""True\"",\""$0.10\"",\""As many or as few as I wish\"",\""My earnings for each round are equal to the <i>sum</i> of the values of all locations I visit (minus the cost of making observations), and I will actually be paid 5% the earnings from one of the 8 rounds.\"",\""True\""]"", ""internal_node_id"": ""0.0-0.1-1.1"", ""time_elapsed"": 184364, ""questions"": ""[\""How many flights are there per round?\"",\""True or false: The hidden values will change each time I start a new round.\"",\""How much does it cost to observe each hidden value?\"",\""How many hidden values am I allowed to observe in each round?\"",\""Which statement is TRUE?\"",\""True of false: The duration of the delay is proportional to how much more money I could have earned by planning and deciding better.\""]"", ""correct"": [true, true, true, true, true, true], ""trial_index"": 3}"
A1J21DM2Z753X4:3XUHV3NRVKYK0PL86KVOW4XSGJ1H5W,4,1493612390233,"{""rt"": [8776, 2678, 4933], ""trial_type"": ""graph"", ""infoCost"": 0.1, ""feedback"": true, ""minTime"": 45, ""delays"": [-4, -4, -4], ""actionTimes"": [8778, 12577, 18594], ""time_elapsed"": 236392, ""actions"": [""right"", ""right"", ""up""], ""trialIndex"": 1, ""score"": 22, ""trial_index"": 4, ""internal_node_id"": ""0.0-1.0-0.0"", ""clickTimes"": [], ""path"": [1, 2, 6, 10], ""trialID"": 7, ""clicks"": [], ""condition"": 4}"
A1J21DM2Z753X4:3XUHV3NRVKYK0PL86KVOW4XSGJ1H5W,5,1493612559722,"{""rt"": [6585, 2764, 1324], ""trial_type"": ""graph"", ""infoCost"": 0.1, ""feedback"": true, ""minTime"": 45, ""delays"": [81, -4, 41], ""actionTimes"": [6587, 91433, 93847], ""time_elapsed"": 405881, ""actions"": [""up"", ""up"", ""right""], ""trialIndex"": 2, ""score"": 13, ""trial_index"": 5, ""internal_node_id"": ""0.0-1.0-1.0"", ""clickTimes"": [], ""path"": [1, 3, 7, 13], ""trialID"": 4, ""clicks"": [], ""condition"": 4}"
