A03922113RU44GENR8ATX:3M81GAB8A0JZ2Y1KQK9V84PKEIBBQ6,0,1487915360595,"{""rt"": 138159, ""trial_type"": ""instructions"", ""view_history"": ""[{\""page_index\"":0,\""viewing_time\"":20673},{\""page_index\"":1,\""viewing_time\"":62921},{\""page_index\"":2,\""viewing_time\"":38573},{\""page_index\"":3,\""viewing_time\"":15992}]"", ""internal_node_id"": ""0.0-0.0-0.0"", ""time_elapsed"": 138159, ""trial_index"": 0}"
A03922113RU44GENR8ATX:3M81GAB8A0JZ2Y1KQK9V84PKEIBBQ6,1,1487915467686,"{""rt"": 102358, ""trial_type"": ""survey-multi-choice"", ""responses"": ""[\""2\"",\""True\"",\""$0.05\"",\""As many or as few as I wish\"",\""My earnings for each round are equal to the <i>sum</i> of the values of all locations I visit (minus the cost of making observations), and I will be paid the earnings from one of the 20 rounds.\"",\""All of the above.\""]"", ""internal_node_id"": ""0.0-0.0-1.0"", ""time_elapsed"": 245249, ""questions"": ""[\""How many flights are there per round?\"",\""True or false: The hidden values will change each time I start a new round.\"",\""How much does it cost to observe each hidden value?\"",\""How many hidden values am I allowed to observe in each round?\"",\""Which statement is TRUE?\"",\""What does the feedback teach me?\""]"", ""correct"": [false, true, true, true, true, true], ""trial_index"": 1}"
A03922113RU44GENR8ATX:3M81GAB8A0JZ2Y1KQK9V84PKEIBBQ6,2,1487915516556,"{""rt"": 47862, ""trial_type"": ""instructions"", ""view_history"": ""[{\""page_index\"":0,\""viewing_time\"":6515},{\""page_index\"":1,\""viewing_time\"":15933},{\""page_index\"":2,\""viewing_time\"":6377},{\""page_index\"":3,\""viewing_time\"":19037}]"", ""internal_node_id"": ""0.0-0.1-0.1"", ""time_elapsed"": 294120, ""trial_index"": 2}"
A03922113RU44GENR8ATX:3M81GAB8A0JZ2Y1KQK9V84PKEIBBQ6,3,1487915576365,"{""rt"": 56982, ""trial_type"": ""survey-multi-choice"", ""responses"": ""[\""1\"",\""True\"",\""$0.05\"",\""As many or as few as I wish\"",\""My earnings for each round are equal to the <i>sum</i> of the values of all locations I visit (minus the cost of making observations), and I will be paid the earnings from one of the 20 rounds.\"",\""All of the above.\""]"", ""internal_node_id"": ""0.0-0.1-1.1"", ""time_elapsed"": 353929, ""questions"": ""[\""How many flights are there per round?\"",\""True or false: The hidden values will change each time I start a new round.\"",\""How much does it cost to observe each hidden value?\"",\""How many hidden values am I allowed to observe in each round?\"",\""Which statement is TRUE?\"",\""What does the feedback teach me?\""]"", ""correct"": [false, true, true, true, true, true], ""trial_index"": 3}"
A03922113RU44GENR8ATX:3M81GAB8A0JZ2Y1KQK9V84PKEIBBQ6,4,1487915599640,"{""rt"": 22273, ""trial_type"": ""instructions"", ""view_history"": ""[{\""page_index\"":0,\""viewing_time\"":1537},{\""page_index\"":1,\""viewing_time\"":7854},{\""page_index\"":2,\""viewing_time\"":6632},{\""page_index\"":3,\""viewing_time\"":6250}]"", ""internal_node_id"": ""0.0-0.2-0.2"", ""time_elapsed"": 377204, ""trial_index"": 4}"
A03922113RU44GENR8ATX:3M81GAB8A0JZ2Y1KQK9V84PKEIBBQ6,5,1487915634707,"{""rt"": 31267, ""trial_type"": ""survey-multi-choice"", ""responses"": ""[\""4\"",\""True\"",\""$0.05\"",\""At most 5\"",\""My earnings for each round are equal to the <i>sum</i> of the values of all locations I visit (minus the cost of making observations), and I will be paid the earnings from one of the 20 rounds.\"",\""All of the above.\""]"", ""internal_node_id"": ""0.0-0.2-1.2"", ""time_elapsed"": 412271, ""questions"": ""[\""How many flights are there per round?\"",\""True or false: The hidden values will change each time I start a new round.\"",\""How much does it cost to observe each hidden value?\"",\""How many hidden values am I allowed to observe in each round?\"",\""Which statement is TRUE?\"",\""What does the feedback teach me?\""]"", ""correct"": [false, true, true, false, true, true], ""trial_index"": 5}"
A03922113RU44GENR8ATX:3M81GAB8A0JZ2Y1KQK9V84PKEIBBQ6,6,1487915641504,"{""rt"": 5795, ""trial_type"": ""instructions"", ""view_history"": ""[{\""page_index\"":0,\""viewing_time\"":1835},{\""page_index\"":1,\""viewing_time\"":1242},{\""page_index\"":2,\""viewing_time\"":1655},{\""page_index\"":3,\""viewing_time\"":1063}]"", ""internal_node_id"": ""0.0-0.3-0.3"", ""time_elapsed"": 419068, ""trial_index"": 6}"
A03922113RU44GENR8ATX:3M81GAB8A0JZ2Y1KQK9V84PKEIBBQ6,7,1487915663417,"{""rt"": 20888, ""trial_type"": ""survey-multi-choice"", ""responses"": ""[\""3\"",\""True\"",\""$0.05\"",\""As many or as few as I wish\"",\""My earnings for each round are equal to the <i>sum</i> of the values of all locations I visit (minus the cost of making observations), and I will be paid the earnings from one of the 20 rounds.\"",\""All of the above.\""]"", ""internal_node_id"": ""0.0-0.3-1.3"", ""time_elapsed"": 440981, ""questions"": ""[\""How many flights are there per round?\"",\""True or false: The hidden values will change each time I start a new round.\"",\""How much does it cost to observe each hidden value?\"",\""How many hidden values am I allowed to observe in each round?\"",\""Which statement is TRUE?\"",\""What does the feedback teach me?\""]"", ""correct"": [true, true, true, true, true, true], ""trial_index"": 7}"
A03922113RU44GENR8ATX:3M81GAB8A0JZ2Y1KQK9V84PKEIBBQ6,8,1487915744283,"{""rt"": [51738, 4741, 15], ""trial_type"": ""graph"", ""infoCost"": 0.05, ""minTime"": 45, ""actionTimes"": [51738, 71162, 72820], ""time_elapsed"": 521847, ""actions"": [""right"", ""right"", ""down""], ""trialIndex"": 1, ""score"": 0.76, ""internal_node_id"": ""0.0-1.0-0.0"", ""clickTimes"": [4779, 15673, 19381, 22856, 26097, 38693], ""path"": [1, 2, 6, 11], ""trialID"": 13, ""clicks"": [""2"", ""7"", ""6"", ""8"", ""9"", ""10""], ""trial_index"": 8}"
A03922113RU44GENR8ATX:3M81GAB8A0JZ2Y1KQK9V84PKEIBBQ6,9,1487915810282,"{""rt"": [5687, 1078, 4322], ""trial_type"": ""graph"", ""infoCost"": 0.05, ""minTime"": 45, ""actionTimes"": [5687, 25484, 31527], ""time_elapsed"": 587846, ""actions"": [""right"", ""right"", ""down""], ""trialIndex"": 2, ""score"": 0.02, ""internal_node_id"": ""0.0-1.0-1.0"", ""clickTimes"": [4902, 28209, 29440], ""path"": [1, 2, 6, 11], ""trialID"": 5, ""clicks"": [""2"", ""11"", ""10""], ""trial_index"": 9}"
A03922113RU44GENR8ATX:3M81GAB8A0JZ2Y1KQK9V84PKEIBBQ6,10,1487916035786,"{""rt"": [6028, 195166, 3365], ""trial_type"": ""graph"", ""infoCost"": 0.05, ""minTime"": 45, ""actionTimes"": [6028, 215895, 220952], ""time_elapsed"": 813349, ""actions"": [""left"", ""left"", ""down""], ""trialIndex"": 3, ""score"": 0.56, ""internal_node_id"": ""0.0-1.0-2.0"", ""clickTimes"": [4098, 219130, 220238], ""path"": [1, 4, 8, 15], ""trialID"": 9, ""clicks"": [""4"", ""14"", ""15""], ""trial_index"": 10}"
A03922113RU44GENR8ATX:3M81GAB8A0JZ2Y1KQK9V84PKEIBBQ6,11,1487916092409,"{""rt"": [16670, 3340, 24], ""trial_type"": ""graph"", ""infoCost"": 0.05, ""minTime"": 45, ""actionTimes"": [16671, 25341, 26641], ""time_elapsed"": 869973, ""actions"": [""left"", ""left"", ""down""], ""trialIndex"": 4, ""score"": 0.52, ""internal_node_id"": ""0.0-1.0-3.0"", ""clickTimes"": [1997, 2938, 4094, 4817, 7235, 8891, 9937, 10917, 22882, 23906], ""path"": [1, 4, 8, 15], ""trialID"": 12, ""clicks"": [""5"", ""4"", ""3"", ""2"", ""8"", ""7"", ""6"", ""9"", ""15"", ""14""], ""trial_index"": 11}"
A03922113RU44GENR8ATX:3M81GAB8A0JZ2Y1KQK9V84PKEIBBQ6,12,1487916172728,"{""rt"": [26057, 1721, 23], ""trial_type"": ""graph"", ""infoCost"": 0.05, ""minTime"": 45, ""actionTimes"": [26058, 42585, 43869], ""time_elapsed"": 950292, ""actions"": [""left"", ""left"", ""up""], ""trialIndex"": 5, ""score"": 0.39, ""internal_node_id"": ""0.0-1.0-4.0"", ""clickTimes"": [2477, 3648, 4627, 5255, 6245, 7425, 9285, 10517, 11430, 13750, 18528, 19765, 20336], ""path"": [1, 4, 8, 14], ""trialID"": 1, ""clicks"": [""2"", ""5"", ""4"", ""3"", ""8"", ""6"", ""11"", ""15"", ""14"", ""10"", ""9"", ""16"", ""17""], ""trial_index"": 12}"
A03922113RU44GENR8ATX:3M81GAB8A0JZ2Y1KQK9V84PKEIBBQ6,13,1487916226134,"{""rt"": [36558, 5750, 95], ""trial_type"": ""graph"", ""infoCost"": 0.05, ""minTime"": 45, ""actionTimes"": [36558, 42861, 44080], ""time_elapsed"": 1003698, ""actions"": [""right"", ""right"", ""up""], ""trialIndex"": 6, ""score"": 0.86, ""internal_node_id"": ""0.0-1.0-5.0"", ""clickTimes"": [2736, 3560, 4838, 5848, 6813, 13221, 14172, 15784, 16332, 18646, 21461, 22639, 24016, 27579, 29302, 30207], ""path"": [1, 2, 6, 10], ""trialID"": 8, ""clicks"": [""2"", ""3"", ""8"", ""5"", ""4"", ""15"", ""14"", ""10"", ""6"", ""11"", ""7"", ""9"", ""17"", ""16"", ""13"", ""12""], ""trial_index"": 13}"
A03922113RU44GENR8ATX:3M81GAB8A0JZ2Y1KQK9V84PKEIBBQ6,14,1487916273943,"{""rt"": [39963, 315, 118], ""trial_type"": ""graph"", ""infoCost"": 0.05, ""minTime"": 45, ""actionTimes"": [39963, 40791, 42072], ""time_elapsed"": 1051502, ""actions"": [""up"", ""up"", ""left""], ""trialIndex"": 7, ""score"": 1.58, ""internal_node_id"": ""0.0-1.0-6.0"", ""clickTimes"": [14566, 15213, 16143, 16913, 18027, 18626, 19280, 20296, 21353, 22144, 23400, 23841, 24376, 25566, 26391, 26869], ""path"": [1, 3, 7, 12], ""trialID"": 0, ""clicks"": [""2"", ""3"", ""4"", ""5"", ""8"", ""14"", ""15"", ""6"", ""10"", ""11"", ""16"", ""9"", ""17"", ""12"", ""7"", ""13""], ""trial_index"": 14}"
A03922113RU44GENR8ATX:3M81GAB8A0JZ2Y1KQK9V84PKEIBBQ6,15,1487916323911,"{""rt"": [34326, 431, 11], ""trial_type"": ""graph"", ""infoCost"": 0.05, ""minTime"": 45, ""actionTimes"": [34326, 35297, 36467], ""time_elapsed"": 1101475, ""actions"": [""up"", ""up"", ""left""], ""trialIndex"": 8, ""score"": 2.89, ""internal_node_id"": ""0.0-1.0-7.0"", ""clickTimes"": [7361, 7794, 8740, 9304, 10036, 10428, 10964, 11564, 12508, 14075, 14889, 15465, 16514, 16860, 17243, 19156], ""path"": [1, 3, 7, 12], ""trialID"": 3, ""clicks"": [""7"", ""3"", ""12"", ""13"", ""10"", ""6"", ""11"", ""2"", ""5"", ""9"", ""16"", ""17"", ""15"", ""8"", ""14"", ""4""], ""trial_index"": 15}"
A03922113RU44GENR8ATX:3M81GAB8A0JZ2Y1KQK9V84PKEIBBQ6,16,1487916379798,"{""rt"": [32672, 489, 5], ""trial_type"": ""graph"", ""infoCost"": 0.05, ""minTime"": 45, ""actionTimes"": [32672, 33682, 34832], ""time_elapsed"": 1157362, ""actions"": [""down"", ""down"", ""right""], ""trialIndex"": 9, ""score"": 2.11, ""internal_node_id"": ""0.0-1.0-8.0"", ""clickTimes"": [1784, 2519, 3005, 4064, 4477, 5079, 5560, 5997, 6486, 7632, 7966, 8399, 8887, 9642, 10648, 11431], ""path"": [1, 5, 9, 17], ""trialID"": 7, ""clicks"": [""3"", ""2"", ""6"", ""8"", ""4"", ""14"", ""12"", ""7"", ""13"", ""16"", ""9"", ""5"", ""17"", ""15"", ""11"", ""10""], ""trial_index"": 16}"
A03922113RU44GENR8ATX:3M81GAB8A0JZ2Y1KQK9V84PKEIBBQ6,17,1487916436743,"{""rt"": [40491, 206, 18], ""trial_type"": ""graph"", ""infoCost"": 0.05, ""minTime"": 45, ""actionTimes"": [40491, 41273, 42447], ""time_elapsed"": 1214302, ""actions"": [""left"", ""left"", ""down""], ""trialIndex"": 10, ""score"": 2.8, ""internal_node_id"": ""0.0-1.0-9.0"", ""clickTimes"": [2063, 3058, 4143, 4863, 6490, 7545, 8466, 9610, 10344, 11083, 12063, 12793, 14346, 17137, 17903, 18748], ""path"": [1, 4, 8, 15], ""trialID"": 14, ""clicks"": [""3"", ""2"", ""5"", ""4"", ""6"", ""8"", ""9"", ""7"", ""13"", ""12"", ""10"", ""11"", ""17"", ""16"", ""15"", ""14""], ""trial_index"": 17}"
A03922113RU44GENR8ATX:3M81GAB8A0JZ2Y1KQK9V84PKEIBBQ6,18,1487916495317,"{""rt"": [30521, 760, 6], ""trial_type"": ""graph"", ""infoCost"": 0.05, ""minTime"": 45, ""actionTimes"": [30521, 35798, 36964], ""time_elapsed"": 1272881, ""actions"": [""left"", ""left"", ""up""], ""trialIndex"": 11, ""score"": 0.9, ""internal_node_id"": ""0.0-1.0-10.0"", ""clickTimes"": [8126, 8763, 9669, 10407, 11221, 12198, 12878, 13411, 13902, 14471, 15286, 15835, 16787, 17186, 17710, 18396], ""path"": [1, 4, 8, 14], ""trialID"": 6, ""clicks"": [""4"", ""8"", ""14"", ""15"", ""16"", ""9"", ""17"", ""5"", ""2"", ""6"", ""11"", ""10"", ""13"", ""7"", ""12"", ""3""], ""trial_index"": 18}"
A03922113RU44GENR8ATX:3M81GAB8A0JZ2Y1KQK9V84PKEIBBQ6,19,1487916546869,"{""rt"": [35642, 168, 1], ""trial_type"": ""graph"", ""infoCost"": 0.05, ""minTime"": 45, ""actionTimes"": [35643, 36332, 37475], ""time_elapsed"": 1324433, ""actions"": [""right"", ""right"", ""down""], ""trialIndex"": 12, ""score"": 1.98, ""internal_node_id"": ""0.0-1.0-11.0"", ""clickTimes"": [12989, 13372, 13855, 14505, 15728, 16260, 16889, 17394, 18748, 19132, 19883, 20585, 21691, 22113, 22628, 23297], ""path"": [1, 2, 6, 11], ""trialID"": 17, ""clicks"": [""3"", ""7"", ""12"", ""13"", ""10"", ""6"", ""11"", ""2"", ""9"", ""5"", ""17"", ""16"", ""15"", ""8"", ""14"", ""4""], ""trial_index"": 19}"
A03922113RU44GENR8ATX:3M81GAB8A0JZ2Y1KQK9V84PKEIBBQ6,20,1487916596870,"{""rt"": [34483, 512, 11], ""trial_type"": ""graph"", ""infoCost"": 0.05, ""minTime"": 45, ""actionTimes"": [34483, 35508, 36693], ""time_elapsed"": 1374434, ""actions"": [""left"", ""left"", ""down""], ""trialIndex"": 13, ""score"": 0.75, ""internal_node_id"": ""0.0-1.0-12.0"", ""clickTimes"": [5299, 6921, 7554, 8554, 10115, 11074, 11890, 13570, 14235, 16595, 17520, 18045, 18920, 20307, 21027, 21760], ""path"": [1, 4, 8, 15], ""trialID"": 15, ""clicks"": [""3"", ""5"", ""4"", ""2"", ""7"", ""13"", ""12"", ""10"", ""6"", ""11"", ""17"", ""9"", ""16"", ""15"", ""8"", ""14""], ""trial_index"": 20}"
A03922113RU44GENR8ATX:3M81GAB8A0JZ2Y1KQK9V84PKEIBBQ6,21,1487916651921,"{""rt"": [24907, 404, 1], ""trial_type"": ""graph"", ""infoCost"": 0.05, ""minTime"": 45, ""actionTimes"": [24907, 25838, 27025], ""time_elapsed"": 1429485, ""actions"": [""up"", ""up"", ""left""], ""trialIndex"": 14, ""score"": 1.46, ""internal_node_id"": ""0.0-1.0-13.0"", ""clickTimes"": [8243, 8813, 9298, 9959, 10808, 11343, 11935, 12593, 13523, 13994, 14682, 15611, 16336, 16811, 17376, 18097], ""path"": [1, 3, 7, 12], ""trialID"": 4, ""clicks"": [""2"", ""6"", ""10"", ""11"", ""17"", ""9"", ""16"", ""5"", ""4"", ""8"", ""15"", ""14"", ""12"", ""7"", ""13"", ""3""], ""trial_index"": 21}"
A03922113RU44GENR8ATX:3M81GAB8A0JZ2Y1KQK9V84PKEIBBQ6,22,1487916720794,"{""rt"": [4713, 7148, 16], ""trial_type"": ""graph"", ""infoCost"": 0.05, ""minTime"": 45, ""actionTimes"": [4713, 33657, 35244], ""time_elapsed"": 1498358, ""actions"": [""up"", ""up"", ""right""], ""trialIndex"": 15, ""score"": 0.3, ""internal_node_id"": ""0.0-1.0-14.0"", ""clickTimes"": [30374, 31416, 32334], ""path"": [1, 3, 7, 13], ""trialID"": 18, ""clicks"": [""7"", ""13"", ""12""], ""trial_index"": 22}"
A03922113RU44GENR8ATX:3M81GAB8A0JZ2Y1KQK9V84PKEIBBQ6,23,1487916769057,"{""rt"": [15167, 455, 26], ""trial_type"": ""graph"", ""infoCost"": 0.05, ""minTime"": 45, ""actionTimes"": [15168, 16147, 17351], ""time_elapsed"": 1546621, ""actions"": [""down"", ""down"", ""right""], ""trialIndex"": 16, ""score"": 4.66, ""internal_node_id"": ""0.0-1.0-15.0"", ""clickTimes"": [2448, 3817, 4265, 5325, 5697, 6369, 7173, 8333, 8662, 9073, 9702, 10593, 11662, 12217, 13265, 13817], ""path"": [1, 5, 9, 17], ""trialID"": 19, ""clicks"": [""3"", ""2"", ""6"", ""9"", ""16"", ""5"", ""17"", ""15"", ""8"", ""14"", ""4"", ""7"", ""13"", ""12"", ""10"", ""11""], ""trial_index"": 23}"
A03922113RU44GENR8ATX:3M81GAB8A0JZ2Y1KQK9V84PKEIBBQ6,24,1487916823391,"{""rt"": [15288, 565, 11], ""trial_type"": ""graph"", ""infoCost"": 0.05, ""minTime"": 45, ""actionTimes"": [15288, 22410, 23608], ""time_elapsed"": 1600955, ""actions"": [""up"", ""up"", ""right""], ""trialIndex"": 17, ""score"": 0.62, ""internal_node_id"": ""0.0-1.0-16.0"", ""clickTimes"": [3121, 3958, 4889, 5639, 6329, 6904, 7494, 8086, 9007, 9422, 9981, 10599, 11182, 12237, 12719, 13377], ""path"": [1, 3, 7, 13], ""trialID"": 16, ""clicks"": [""7"", ""13"", ""12"", ""3"", ""2"", ""6"", ""10"", ""11"", ""17"", ""9"", ""16"", ""5"", ""4"", ""8"", ""15"", ""14""], ""trial_index"": 24}"
A03922113RU44GENR8ATX:3M81GAB8A0JZ2Y1KQK9V84PKEIBBQ6,25,1487916872707,"{""rt"": [13435, 277, 1], ""trial_type"": ""graph"", ""infoCost"": 0.05, ""minTime"": 45, ""actionTimes"": [13435, 14250, 15438], ""time_elapsed"": 1650271, ""actions"": [""left"", ""left"", ""down""], ""trialIndex"": 18, ""score"": 1.41, ""internal_node_id"": ""0.0-1.0-17.0"", ""clickTimes"": [1567, 2271, 2822, 3391, 4161, 5031, 5482, 6369, 7035, 7982, 8410, 9178, 9833, 10766, 11872, 12450], ""path"": [1, 4, 8, 15], ""trialID"": 2, ""clicks"": [""3"", ""2"", ""6"", ""10"", ""11"", ""9"", ""5"", ""16"", ""17"", ""15"", ""8"", ""14"", ""4"", ""12"", ""7"", ""13""], ""trial_index"": 25}"
A03922113RU44GENR8ATX:3M81GAB8A0JZ2Y1KQK9V84PKEIBBQ6,26,1487916923666,"{""rt"": [16046, 478, 3554], ""trial_type"": ""graph"", ""infoCost"": 0.05, ""minTime"": 45, ""actionTimes"": [16047, 18054, 22758], ""time_elapsed"": 1701230, ""actions"": [""right"", ""right"", ""down""], ""trialIndex"": 19, ""score"": 0.51, ""internal_node_id"": ""0.0-1.0-18.0"", ""clickTimes"": [963, 2186, 3061, 3525, 4172, 4833, 5322, 5893, 6533, 7381, 7938, 8698, 9563, 11248, 11828, 12633], ""path"": [1, 2, 6, 11], ""trialID"": 10, ""clicks"": [""3"", ""2"", ""6"", ""10"", ""11"", ""17"", ""9"", ""16"", ""5"", ""4"", ""8"", ""15"", ""14"", ""12"", ""7"", ""13""], ""trial_index"": 26}"
A03922113RU44GENR8ATX:3M81GAB8A0JZ2Y1KQK9V84PKEIBBQ6,27,1487916970737,"{""rt"": [16599, 351, 24], ""trial_type"": ""graph"", ""infoCost"": 0.05, ""minTime"": 45, ""actionTimes"": [16599, 17479, 18659], ""time_elapsed"": 1748301, ""actions"": [""up"", ""up"", ""left""], ""trialIndex"": 20, ""score"": 1.62, ""internal_node_id"": ""0.0-1.0-19.0"", ""clickTimes"": [1999, 2807, 3259, 3743, 4389, 5254, 6324, 7084, 8024, 8989, 9430, 10844, 11507, 12682, 13259, 13859], ""path"": [1, 3, 7, 12], ""trialID"": 11, ""clicks"": [""3"", ""2"", ""6"", ""10"", ""11"", ""17"", ""16"", ""5"", ""9"", ""15"", ""8"", ""14"", ""4"", ""12"", ""7"", ""13""], ""trial_index"": 27}"
A03922113RU44GENR8ATX:3M81GAB8A0JZ2Y1KQK9V84PKEIBBQ6,28,1487916973526,"{""rt"": 1775, ""trial_type"": ""button-response"", ""button_pressed"": 0, ""stimulus"": ""<h1 id=\""thiscompletesthehit\"">This completes the HIT</h1>\n\n<p>One or your profits was randomly selected as your bonus. You will be awarded a bonus of $1.41</p>"", ""internal_node_id"": ""0.0-2.0"", ""time_elapsed"": 1751090, ""trial_index"": 28}"
A11DOB7V9YBL4S:3PPTZCWALQKVKW40WYPYUMWN5L7QZ1,0,1487917397686,"{""rt"": 110026, ""trial_type"": ""instructions"", ""view_history"": ""[{\""page_index\"":0,\""viewing_time\"":37439},{\""page_index\"":1,\""viewing_time\"":33841},{\""page_index\"":2,\""viewing_time\"":19519},{\""page_index\"":3,\""viewing_time\"":19226}]"", ""internal_node_id"": ""0.0-0.0-0.0"", ""time_elapsed"": 110026, ""trial_index"": 0}"
A11DOB7V9YBL4S:3PPTZCWALQKVKW40WYPYUMWN5L7QZ1,1,1487917461229,"{""rt"": 57460, ""trial_type"": ""survey-multi-choice"", ""responses"": ""[\""1\"",\""True\"",\""$0.05\"",\""As many or as few as I wish\"",\""My earnings for each round are equal to the <i>sum</i> of the values of all locations I visit (minus the cost of making observations), and I will be paid the earnings from one of the 20 rounds.\"",\""The duration of the delay tells me how much more money I could have earned by planning and deciding better.\""]"", ""internal_node_id"": ""0.0-0.0-1.0"", ""time_elapsed"": 173569, ""questions"": ""[\""How many flights are there per round?\"",\""True or false: The hidden values will change each time I start a new round.\"",\""How much does it cost to observe each hidden value?\"",\""How many hidden values am I allowed to observe in each round?\"",\""Which statement is TRUE?\"",\""What does the feedback teach me?\""]"", ""correct"": [false, true, true, true, true, false], ""trial_index"": 1}"
A11DOB7V9YBL4S:3PPTZCWALQKVKW40WYPYUMWN5L7QZ1,2,1487917536337,"{""rt"": 74104, ""trial_type"": ""instructions"", ""view_history"": ""[{\""page_index\"":0,\""viewing_time\"":14657},{\""page_index\"":1,\""viewing_time\"":28227},{\""page_index\"":2,\""viewing_time\"":22254},{\""page_index\"":3,\""viewing_time\"":8965}]"", ""internal_node_id"": ""0.0-0.1-0.1"", ""time_elapsed"": 248677, ""trial_index"": 2}"
A11DOB7V9YBL4S:3PPTZCWALQKVKW40WYPYUMWN5L7QZ1,3,1487917663659,"{""rt"": 123325, ""trial_type"": ""survey-multi-choice"", ""responses"": ""[\""2\"",\""True\"",\""$0.05\"",\""As many or as few as I wish\"",\""My earnings for each round are equal to the <i>sum</i> of the values of all locations I visit (minus the cost of making observations), and I will be paid the earnings from one of the 20 rounds.\"",\""All of the above.\""]"", ""internal_node_id"": ""0.0-0.1-1.1"", ""time_elapsed"": 375999, ""questions"": ""[\""How many flights are there per round?\"",\""True or false: The hidden values will change each time I start a new round.\"",\""How much does it cost to observe each hidden value?\"",\""How many hidden values am I allowed to observe in each round?\"",\""Which statement is TRUE?\"",\""What does the feedback teach me?\""]"", ""correct"": [false, true, true, true, true, true], ""trial_index"": 3}"
A11DOB7V9YBL4S:3PPTZCWALQKVKW40WYPYUMWN5L7QZ1,4,1487917684809,"{""rt"": 20146, ""trial_type"": ""instructions"", ""view_history"": ""[{\""page_index\"":0,\""viewing_time\"":15748},{\""page_index\"":1,\""viewing_time\"":1589},{\""page_index\"":2,\""viewing_time\"":1492},{\""page_index\"":3,\""viewing_time\"":1316}]"", ""internal_node_id"": ""0.0-0.2-0.2"", ""time_elapsed"": 397149, ""trial_index"": 4}"
A11DOB7V9YBL4S:3PPTZCWALQKVKW40WYPYUMWN5L7QZ1,5,1487917704937,"{""rt"": 16423, ""trial_type"": ""survey-multi-choice"", ""responses"": ""[\""1\"",\""True\"",\""$0.05\"",\""As many or as few as I wish\"",\""My earnings for each round are equal to the <i>sum</i> of the values of all locations I visit (minus the cost of making observations), and I will be paid the earnings from one of the 20 rounds.\"",\""All of the above.\""]"", ""internal_node_id"": ""0.0-0.2-1.2"", ""time_elapsed"": 417277, ""questions"": ""[\""How many flights are there per round?\"",\""True or false: The hidden values will change each time I start a new round.\"",\""How much does it cost to observe each hidden value?\"",\""How many hidden values am I allowed to observe in each round?\"",\""Which statement is TRUE?\"",\""What does the feedback teach me?\""]"", ""correct"": [false, true, true, true, true, true], ""trial_index"": 5}"
A11DOB7V9YBL4S:3PPTZCWALQKVKW40WYPYUMWN5L7QZ1,6,1487917712688,"{""rt"": 6747, ""trial_type"": ""instructions"", ""view_history"": ""[{\""page_index\"":0,\""viewing_time\"":1887},{\""page_index\"":1,\""viewing_time\"":2271},{\""page_index\"":2,\""viewing_time\"":1238},{\""page_index\"":3,\""viewing_time\"":1350}]"", ""internal_node_id"": ""0.0-0.3-0.3"", ""time_elapsed"": 425028, ""trial_index"": 6}"
A11DOB7V9YBL4S:3PPTZCWALQKVKW40WYPYUMWN5L7QZ1,7,1487918039965,"{""rt"": 314395, ""trial_type"": ""survey-multi-choice"", ""responses"": ""[\""1\"",\""True\"",\""$0.05\"",\""As many or as few as I wish\"",\""My earnings for each round are equal to the <i>sum</i> of the values of all locations I visit (minus the cost of making observations), and I will be paid the earnings from one of the 20 rounds.\"",\""Whether I chose the move that was best according to the information I had.\""]"", ""internal_node_id"": ""0.0-0.3-1.3"", ""time_elapsed"": 752305, ""questions"": ""[\""How many flights are there per round?\"",\""True or false: The hidden values will change each time I start a new round.\"",\""How much does it cost to observe each hidden value?\"",\""How many hidden values am I allowed to observe in each round?\"",\""Which statement is TRUE?\"",\""What does the feedback teach me?\""]"", ""correct"": [false, true, true, true, true, false], ""trial_index"": 7}"
A11DOB7V9YBL4S:3PPTZCWALQKVKW40WYPYUMWN5L7QZ1,8,1487918091267,"{""rt"": 50298, ""trial_type"": ""instructions"", ""view_history"": ""[{\""page_index\"":0,\""viewing_time\"":22353},{\""page_index\"":1,\""viewing_time\"":13116},{\""page_index\"":2,\""viewing_time\"":2835},{\""page_index\"":3,\""viewing_time\"":11993}]"", ""internal_node_id"": ""0.0-0.4-0.4"", ""time_elapsed"": 803607, ""trial_index"": 8}"
A11DOB7V9YBL4S:3PPTZCWALQKVKW40WYPYUMWN5L7QZ1,9,1487918224327,"{""rt"": 129749, ""trial_type"": ""survey-multi-choice"", ""responses"": ""[\""2\"",\""True\"",\""$0.05\"",\""As many or as few as I wish\"",\""My earnings for each round are equal to the <i>sum</i> of the values of all locations I visit (minus the cost of making observations), and I will be paid the earnings from one of the 20 rounds.\"",\""All of the above.\""]"", ""internal_node_id"": ""0.0-0.4-1.4"", ""time_elapsed"": 936667, ""questions"": ""[\""How many flights are there per round?\"",\""True or false: The hidden values will change each time I start a new round.\"",\""How much does it cost to observe each hidden value?\"",\""How many hidden values am I allowed to observe in each round?\"",\""Which statement is TRUE?\"",\""What does the feedback teach me?\""]"", ""correct"": [false, true, true, true, true, true], ""trial_index"": 9}"
A11DOB7V9YBL4S:3PPTZCWALQKVKW40WYPYUMWN5L7QZ1,10,1487918231020,"{""rt"": 5690, ""trial_type"": ""instructions"", ""view_history"": ""[{\""page_index\"":0,\""viewing_time\"":1516},{\""page_index\"":1,\""viewing_time\"":1192},{\""page_index\"":2,\""viewing_time\"":1440},{\""page_index\"":3,\""viewing_time\"":1541}]"", ""internal_node_id"": ""0.0-0.5-0.5"", ""time_elapsed"": 943360, ""trial_index"": 10}"
A11DOB7V9YBL4S:3PPTZCWALQKVKW40WYPYUMWN5L7QZ1,11,1487918249730,"{""rt"": 11114, ""trial_type"": ""survey-multi-choice"", ""responses"": ""[\""1\"",\""True\"",\""$0.05\"",\""As many or as few as I wish\"",\""My earnings for each round are equal to the <i>sum</i> of the values of all locations I visit (minus the cost of making observations), and I will be paid the earnings from one of the 20 rounds.\"",\""All of the above.\""]"", ""internal_node_id"": ""0.0-0.5-1.5"", ""time_elapsed"": 962070, ""questions"": ""[\""How many flights are there per round?\"",\""True or false: The hidden values will change each time I start a new round.\"",\""How much does it cost to observe each hidden value?\"",\""How many hidden values am I allowed to observe in each round?\"",\""Which statement is TRUE?\"",\""What does the feedback teach me?\""]"", ""correct"": [false, true, true, true, true, true], ""trial_index"": 11}"
A11DOB7V9YBL4S:3PPTZCWALQKVKW40WYPYUMWN5L7QZ1,12,1487918280174,"{""rt"": 29441, ""trial_type"": ""instructions"", ""view_history"": ""[{\""page_index\"":0,\""viewing_time\"":22973},{\""page_index\"":1,\""viewing_time\"":1776},{\""page_index\"":2,\""viewing_time\"":2025},{\""page_index\"":3,\""viewing_time\"":2667}]"", ""internal_node_id"": ""0.0-0.6-0.6"", ""time_elapsed"": 992514, ""trial_index"": 12}"
A11DOB7V9YBL4S:3PPTZCWALQKVKW40WYPYUMWN5L7QZ1,13,1487918431460,"{""rt"": 147931, ""trial_type"": ""survey-multi-choice"", ""responses"": ""[\""1\"",\""True\"",\""$0.05\"",\""As many or as few as I wish\"",\""My earnings for each round are equal to the <i>sum</i> of the values of all locations I visit (minus the cost of making observations), and I will be paid the earnings from one of the 20 rounds.\"",\""Whether I chose the move that was best according to the information I had.\""]"", ""internal_node_id"": ""0.0-0.6-1.6"", ""time_elapsed"": 1143799, ""questions"": ""[\""How many flights are there per round?\"",\""True or false: The hidden values will change each time I start a new round.\"",\""How much does it cost to observe each hidden value?\"",\""How many hidden values am I allowed to observe in each round?\"",\""Which statement is TRUE?\"",\""What does the feedback teach me?\""]"", ""correct"": [false, true, true, true, true, false], ""trial_index"": 13}"
A11DOB7V9YBL4S:3PPTZCWALQKVKW40WYPYUMWN5L7QZ1,14,1487918437005,"{""rt"": 4544, ""trial_type"": ""instructions"", ""view_history"": ""[{\""page_index\"":0,\""viewing_time\"":1552},{\""page_index\"":1,\""viewing_time\"":1034},{\""page_index\"":2,\""viewing_time\"":979},{\""page_index\"":3,\""viewing_time\"":979}]"", ""internal_node_id"": ""0.0-0.7-0.7"", ""time_elapsed"": 1149345, ""trial_index"": 14}"
A11DOB7V9YBL4S:3PPTZCWALQKVKW40WYPYUMWN5L7QZ1,15,1487918453645,"{""rt"": 13624, ""trial_type"": ""survey-multi-choice"", ""responses"": ""[\""1\"",\""True\"",\""$0.05\"",\""As many or as few as I wish\"",\""My earnings for each round are equal to the <i>sum</i> of the values of all locations I visit (minus the cost of making observations), and I will be paid the earnings from one of the 20 rounds.\"",\""Whether I observed the rewards of relevant locations.\""]"", ""internal_node_id"": ""0.0-0.7-1.7"", ""time_elapsed"": 1165985, ""questions"": ""[\""How many flights are there per round?\"",\""True or false: The hidden values will change each time I start a new round.\"",\""How much does it cost to observe each hidden value?\"",\""How many hidden values am I allowed to observe in each round?\"",\""Which statement is TRUE?\"",\""What does the feedback teach me?\""]"", ""correct"": [false, true, true, true, true, false], ""trial_index"": 15}"
A11DOB7V9YBL4S:3PPTZCWALQKVKW40WYPYUMWN5L7QZ1,16,1487918461216,"{""rt"": 6569, ""trial_type"": ""instructions"", ""view_history"": ""[{\""page_index\"":0,\""viewing_time\"":1642},{\""page_index\"":1,\""viewing_time\"":1709},{\""page_index\"":2,\""viewing_time\"":1958},{\""page_index\"":3,\""viewing_time\"":1260}]"", ""internal_node_id"": ""0.0-0.8-0.8"", ""time_elapsed"": 1173556, ""trial_index"": 16}"
A11DOB7V9YBL4S:3PPTZCWALQKVKW40WYPYUMWN5L7QZ1,17,1487918477800,"{""rt"": 13598, ""trial_type"": ""survey-multi-choice"", ""responses"": ""[\""1\"",\""True\"",\""$0.05\"",\""As many or as few as I wish\"",\""My earnings for each round are equal to the <i>sum</i> of the values of all locations I visit (minus the cost of making observations), and I will be paid the earnings from one of the 20 rounds.\"",\""The duration of the delay tells me how much more money I could have earned by planning and deciding better.\""]"", ""internal_node_id"": ""0.0-0.8-1.8"", ""time_elapsed"": 1190140, ""questions"": ""[\""How many flights are there per round?\"",\""True or false: The hidden values will change each time I start a new round.\"",\""How much does it cost to observe each hidden value?\"",\""How many hidden values am I allowed to observe in each round?\"",\""Which statement is TRUE?\"",\""What does the feedback teach me?\""]"", ""correct"": [false, true, true, true, true, false], ""trial_index"": 17}"
A11DOB7V9YBL4S:3PPTZCWALQKVKW40WYPYUMWN5L7QZ1,18,1487918483999,"{""rt"": 5196, ""trial_type"": ""instructions"", ""view_history"": ""[{\""page_index\"":0,\""viewing_time\"":2025},{\""page_index\"":1,\""viewing_time\"":1000},{\""page_index\"":2,\""viewing_time\"":1192},{\""page_index\"":3,\""viewing_time\"":979}]"", ""internal_node_id"": ""0.0-0.9-0.9"", ""time_elapsed"": 1196338, ""trial_index"": 18}"
A11DOB7V9YBL4S:3PPTZCWALQKVKW40WYPYUMWN5L7QZ1,19,1487918496295,"{""rt"": 9427, ""trial_type"": ""survey-multi-choice"", ""responses"": ""[\""2\"",\""True\"",\""$0.05\"",\""As many or as few as I wish\"",\""My earnings for each round are equal to the <i>sum</i> of the values of all locations I visit (minus the cost of making observations), and I will be paid the earnings from one of the 20 rounds.\"",\""Whether I chose the move that was best according to the information I had.\""]"", ""internal_node_id"": ""0.0-0.9-1.9"", ""time_elapsed"": 1208635, ""questions"": ""[\""How many flights are there per round?\"",\""True or false: The hidden values will change each time I start a new round.\"",\""How much does it cost to observe each hidden value?\"",\""How many hidden values am I allowed to observe in each round?\"",\""Which statement is TRUE?\"",\""What does the feedback teach me?\""]"", ""correct"": [false, true, true, true, true, false], ""trial_index"": 19}"
A11DOB7V9YBL4S:3PPTZCWALQKVKW40WYPYUMWN5L7QZ1,20,1487918503293,"{""rt"": 5995, ""trial_type"": ""instructions"", ""view_history"": ""[{\""page_index\"":0,\""viewing_time\"":1675},{\""page_index\"":1,\""viewing_time\"":1676},{\""page_index\"":2,\""viewing_time\"":1170},{\""page_index\"":3,\""viewing_time\"":1474}]"", ""internal_node_id"": ""0.0-0.10-0.10"", ""time_elapsed"": 1215633, ""trial_index"": 20}"
A11DOB7V9YBL4S:3PPTZCWALQKVKW40WYPYUMWN5L7QZ1,21,1487918532726,"{""rt"": 26628, ""trial_type"": ""survey-multi-choice"", ""responses"": ""[\""2\"",\""True\"",\""$0.05\"",\""As many or as few as I wish\"",\""My earnings for each round are equal to the <i>sum</i> of the values of all locations I visit (minus the cost of making observations), and I will be paid the earnings from one of the 20 rounds.\"",\""All of the above.\""]"", ""internal_node_id"": ""0.0-0.10-1.10"", ""time_elapsed"": 1245065, ""questions"": ""[\""How many flights are there per round?\"",\""True or false: The hidden values will change each time I start a new round.\"",\""How much does it cost to observe each hidden value?\"",\""How many hidden values am I allowed to observe in each round?\"",\""Which statement is TRUE?\"",\""What does the feedback teach me?\""]"", ""correct"": [false, true, true, true, true, true], ""trial_index"": 21}"
A11DOB7V9YBL4S:3PPTZCWALQKVKW40WYPYUMWN5L7QZ1,22,1487918545269,"{""rt"": 11540, ""trial_type"": ""instructions"", ""view_history"": ""[{\""page_index\"":0,\""viewing_time\"":4186},{\""page_index\"":1,\""viewing_time\"":1516},{\""page_index\"":2,\""viewing_time\"":2034},{\""page_index\"":3,\""viewing_time\"":3803}]"", ""internal_node_id"": ""0.0-0.11-0.11"", ""time_elapsed"": 1257609, ""trial_index"": 22}"
A11DOB7V9YBL4S:3PPTZCWALQKVKW40WYPYUMWN5L7QZ1,23,1487918621675,"{""rt"": 75389, ""trial_type"": ""survey-multi-choice"", ""responses"": ""[\""3\"",\""True\"",\""$0.05\"",\""As many or as few as I wish\"",\""My earnings for each round are equal to the <i>sum</i> of the values of all locations I visit (minus the cost of making observations), and I will be paid the earnings from one of the 20 rounds.\"",\""All of the above.\""]"", ""internal_node_id"": ""0.0-0.11-1.11"", ""time_elapsed"": 1334015, ""questions"": ""[\""How many flights are there per round?\"",\""True or false: The hidden values will change each time I start a new round.\"",\""How much does it cost to observe each hidden value?\"",\""How many hidden values am I allowed to observe in each round?\"",\""Which statement is TRUE?\"",\""What does the feedback teach me?\""]"", ""correct"": [true, true, true, true, true, true], ""trial_index"": 23}"
A11DOB7V9YBL4S:3PPTZCWALQKVKW40WYPYUMWN5L7QZ1,24,1487918683232,"{""rt"": [10033, 13624, 20634], ""trial_type"": ""graph"", ""infoCost"": 0.05, ""minTime"": 45, ""actionTimes"": [10033, 35561, 57060], ""time_elapsed"": 1395572, ""actions"": [""left"", ""left"", ""down""], ""trialIndex"": 1, ""score"": 0.67, ""internal_node_id"": ""0.0-1.0-0.0"", ""clickTimes"": [4848, 5803, 6411, 6951, 27619, 28248, 29272], ""path"": [1, 4, 8, 15], ""trialID"": 12, ""clicks"": [""2"", ""3"", ""4"", ""5"", ""15"", ""8"", ""14""], ""trial_index"": 24}"
A11DOB7V9YBL4S:3PPTZCWALQKVKW40WYPYUMWN5L7QZ1,25,1487918741476,"{""rt"": [13313, 32561, 240], ""trial_type"": ""graph"", ""infoCost"": 0.05, ""minTime"": 45, ""actionTimes"": [13313, 53681, 54714], ""time_elapsed"": 1453816, ""actions"": [""left"", ""left"", ""down""], ""trialIndex"": 2, ""score"": 1.05, ""internal_node_id"": ""0.0-1.0-1.0"", ""clickTimes"": [2042, 2581, 3245, 3808, 4550, 5214, 5866, 6474, 23147, 25004], ""path"": [1, 4, 8, 15], ""trialID"": 15, ""clicks"": [""4"", ""3"", ""2"", ""5"", ""6"", ""7"", ""9"", ""8"", ""15"", ""14""], ""trial_index"": 25}"
A11DOB7V9YBL4S:3PPTZCWALQKVKW40WYPYUMWN5L7QZ1,26,1487918795344,"{""rt"": [23581, 10139, 10418], ""trial_type"": ""graph"", ""infoCost"": 0.05, ""minTime"": 45, ""actionTimes"": [23581, 39534, 50740], ""time_elapsed"": 1507683, ""actions"": [""right"", ""right"", ""up""], ""trialIndex"": 3, ""score"": 1.62, ""internal_node_id"": ""0.0-1.0-2.0"", ""clickTimes"": [2038, 3658, 4850, 5424, 7348, 15381, 17473, 21197, 32155, 32672], ""path"": [1, 2, 6, 10], ""trialID"": 18, ""clicks"": [""3"", ""2"", ""5"", ""4"", ""6"", ""7"", ""9"", ""8"", ""11"", ""10""], ""trial_index"": 26}"
A11DOB7V9YBL4S:3PPTZCWALQKVKW40WYPYUMWN5L7QZ1,27,1487918852766,"{""rt"": [27018, 2524, 14509], ""trial_type"": ""graph"", ""infoCost"": 0.05, ""minTime"": 45, ""actionTimes"": [27019, 37211, 52557], ""time_elapsed"": 1565106, ""actions"": [""down"", ""down"", ""right""], ""trialIndex"": 4, ""score"": 1.05, ""internal_node_id"": ""0.0-1.0-3.0"", ""clickTimes"": [682, 1053, 1537, 2774, 3202, 3877, 4473, 4889, 5283, 6093, 6442, 6982, 24725], ""path"": [1, 5, 9, 17], ""trialID"": 1, ""clicks"": [""14"", ""8"", ""15"", ""16"", ""9"", ""17"", ""11"", ""6"", ""10"", ""12"", ""7"", ""13"", ""5""], ""trial_index"": 27}"
A11DOB7V9YBL4S:3PPTZCWALQKVKW40WYPYUMWN5L7QZ1,28,1487918902774,"{""rt"": [16148, 619, 28272], ""trial_type"": ""graph"", ""infoCost"": 0.05, ""minTime"": 45, ""actionTimes"": [16148, 17262, 46278], ""time_elapsed"": 1615114, ""actions"": [""left"", ""left"", ""down""], ""trialIndex"": 5, ""score"": 1.41, ""internal_node_id"": ""0.0-1.0-4.0"", ""clickTimes"": [1164, 1569, 2042, 2626, 3549, 4145, 4662, 5147, 5450, 5788, 6451, 6823, 7194, 7801, 8139, 8465], ""path"": [1, 4, 8, 15], ""trialID"": 2, ""clicks"": [""3"", ""7"", ""13"", ""12"", ""2"", ""5"", ""4"", ""14"", ""8"", ""15"", ""16"", ""9"", ""17"", ""11"", ""6"", ""10""], ""trial_index"": 28}"
A11DOB7V9YBL4S:3PPTZCWALQKVKW40WYPYUMWN5L7QZ1,29,1487918962053,"{""rt"": [27691, 437, 15861], ""trial_type"": ""graph"", ""infoCost"": 0.05, ""minTime"": 45, ""actionTimes"": [27691, 33800, 50506], ""time_elapsed"": 1674393, ""actions"": [""right"", ""right"", ""down""], ""trialIndex"": 6, ""score"": 1.7, ""internal_node_id"": ""0.0-1.0-5.0"", ""clickTimes"": [2311, 2873, 3098, 3840, 4189, 4572, 5337, 5697, 6057, 6620, 6968, 7283, 9803], ""path"": [1, 2, 6, 11], ""trialID"": 6, ""clicks"": [""16"", ""9"", ""17"", ""15"", ""8"", ""14"", ""12"", ""7"", ""13"", ""10"", ""6"", ""11"", ""2""], ""trial_index"": 29}"
A11DOB7V9YBL4S:3PPTZCWALQKVKW40WYPYUMWN5L7QZ1,30,1487919022614,"{""rt"": [28981, 15988, 294], ""trial_type"": ""graph"", ""infoCost"": 0.05, ""minTime"": 45, ""actionTimes"": [28981, 56681, 57804], ""time_elapsed"": 1734954, ""actions"": [""up"", ""up"", ""left""], ""trialIndex"": 7, ""score"": 1.83, ""internal_node_id"": ""0.0-1.0-6.0"", ""clickTimes"": [4366, 5074, 5693, 6402, 8044, 10801, 12275, 15256, 20660, 22625, 23514], ""path"": [1, 3, 7, 12], ""trialID"": 0, ""clicks"": [""4"", ""3"", ""2"", ""5"", ""8"", ""6"", ""11"", ""10"", ""7"", ""13"", ""12""], ""trial_index"": 30}"
A11DOB7V9YBL4S:3PPTZCWALQKVKW40WYPYUMWN5L7QZ1,31,1487919071477,"{""rt"": [20690, 4632, 19400], ""trial_type"": ""graph"", ""infoCost"": 0.05, ""minTime"": 45, ""actionTimes"": [20690, 25819, 45948], ""time_elapsed"": 1783817, ""actions"": [""up"", ""up"", ""left""], ""trialIndex"": 8, ""score"": 1.35, ""internal_node_id"": ""0.0-1.0-7.0"", ""clickTimes"": [1194, 1712, 2093, 2723, 3218, 3657, 3927, 4400, 5154, 5570, 5829, 6414, 6965, 7381, 7561, 8270], ""path"": [1, 3, 7, 12], ""trialID"": 5, ""clicks"": [""2"", ""6"", ""11"", ""10"", ""3"", ""7"", ""13"", ""12"", ""4"", ""8"", ""14"", ""15"", ""5"", ""9"", ""17"", ""16""], ""trial_index"": 31}"
A11DOB7V9YBL4S:3PPTZCWALQKVKW40WYPYUMWN5L7QZ1,32,1487919119627,"{""rt"": [29410, 1711, 12955], ""trial_type"": ""graph"", ""infoCost"": 0.05, ""minTime"": 45, ""actionTimes"": [29410, 31614, 45295], ""time_elapsed"": 1831967, ""actions"": [""up"", ""up"", ""left""], ""trialIndex"": 9, ""score"": 1.46, ""internal_node_id"": ""0.0-1.0-8.0"", ""clickTimes"": [2151, 2780, 3872, 4580, 5480, 6549, 10116, 11083, 12073, 13030, 13873, 14514, 14886, 15200, 15988, 16360], ""path"": [1, 3, 7, 12], ""trialID"": 4, ""clicks"": [""4"", ""3"", ""2"", ""5"", ""7"", ""12"", ""8"", ""15"", ""9"", ""17"", ""16"", ""11"", ""6"", ""10"", ""14"", ""13""], ""trial_index"": 32}"
A11DOB7V9YBL4S:3PPTZCWALQKVKW40WYPYUMWN5L7QZ1,33,1487919168252,"{""rt"": [31235, 5579, 7646], ""trial_type"": ""graph"", ""infoCost"": 0.05, ""minTime"": 45, ""actionTimes"": [31235, 37309, 45702], ""time_elapsed"": 1880592, ""actions"": [""up"", ""up"", ""right""], ""trialIndex"": 10, ""score"": 2.41, ""internal_node_id"": ""0.0-1.0-9.0"", ""clickTimes"": [6451, 8116, 9882, 10658, 11378, 13392, 15136, 15822, 16722, 17296, 21031, 22326, 23258, 23990, 25029, 29064], ""path"": [1, 3, 7, 13], ""trialID"": 13, ""clicks"": [""12"", ""7"", ""8"", ""6"", ""9"", ""2"", ""10"", ""11"", ""17"", ""5"", ""4"", ""15"", ""14"", ""3"", ""13"", ""16""], ""trial_index"": 33}"
A11DOB7V9YBL4S:3PPTZCWALQKVKW40WYPYUMWN5L7QZ1,34,1487919217619,"{""rt"": [22217, 1994, 20353], ""trial_type"": ""graph"", ""infoCost"": 0.05, ""minTime"": 45, ""actionTimes"": [22217, 24714, 45798], ""time_elapsed"": 1929959, ""actions"": [""right"", ""right"", ""up""], ""trialIndex"": 11, ""score"": 0.86, ""internal_node_id"": ""0.0-1.0-10.0"", ""clickTimes"": [1123, 1584, 1888, 2203, 2732, 3047, 3362, 3689, 4172, 4509, 4768, 5027, 5668, 5882, 6129, 6461], ""path"": [1, 2, 6, 10], ""trialID"": 8, ""clicks"": [""4"", ""8"", ""15"", ""14"", ""3"", ""7"", ""12"", ""13"", ""10"", ""2"", ""6"", ""11"", ""17"", ""9"", ""5"", ""16""], ""trial_index"": 34}"
A11DOB7V9YBL4S:3PPTZCWALQKVKW40WYPYUMWN5L7QZ1,35,1487919268179,"{""rt"": [35646, 945, 7719], ""trial_type"": ""graph"", ""infoCost"": 0.05, ""minTime"": 45, ""actionTimes"": [35646, 37097, 45546], ""time_elapsed"": 1980519, ""actions"": [""right"", ""right"", ""down""], ""trialIndex"": 12, ""score"": 1.98, ""internal_node_id"": ""0.0-1.0-11.0"", ""clickTimes"": [6678, 7318, 7858, 8364, 8916, 9433, 10041, 10974, 12315, 12606, 19559, 20346, 21269, 22023, 22686, 23204], ""path"": [1, 2, 6, 11], ""trialID"": 17, ""clicks"": [""12"", ""13"", ""14"", ""15"", ""16"", ""17"", ""11"", ""10"", ""2"", ""6"", ""5"", ""9"", ""4"", ""8"", ""3"", ""7""], ""trial_index"": 35}"
A11DOB7V9YBL4S:3PPTZCWALQKVKW40WYPYUMWN5L7QZ1,36,1487919325399,"{""rt"": [51691, 431, 205], ""trial_type"": ""graph"", ""infoCost"": 0.05, ""minTime"": 45, ""actionTimes"": [51693, 52616, 53570], ""time_elapsed"": 2037739, ""actions"": [""up"", ""up"", ""left""], ""trialIndex"": 13, ""score"": 2.89, ""internal_node_id"": ""0.0-1.0-12.0"", ""clickTimes"": [1415, 1741, 2123, 2911, 3439, 3754, 4058, 4407, 5093, 5476, 5757, 6106, 6770, 7051, 7760, 8086], ""path"": [1, 3, 7, 12], ""trialID"": 3, ""clicks"": [""4"", ""8"", ""14"", ""15"", ""16"", ""9"", ""17"", ""5"", ""11"", ""6"", ""2"", ""10"", ""3"", ""7"", ""13"", ""12""], ""trial_index"": 36}"
A11DOB7V9YBL4S:3PPTZCWALQKVKW40WYPYUMWN5L7QZ1,37,1487919381606,"{""rt"": [19793, 1875, 28682], ""trial_type"": ""graph"", ""infoCost"": 0.05, ""minTime"": 45, ""actionTimes"": [19793, 22188, 51609], ""time_elapsed"": 2093946, ""actions"": [""up"", ""up"", ""right""], ""trialIndex"": 14, ""score"": 0.73, ""internal_node_id"": ""0.0-1.0-13.0"", ""clickTimes"": [2783, 3368, 4031, 4380, 4921, 5168, 5550, 6068, 6281, 6585, 7115, 7395, 8250, 8914, 9117, 9353], ""path"": [1, 3, 7, 13], ""trialID"": 10, ""clicks"": [""3"", ""2"", ""5"", ""4"", ""8"", ""14"", ""15"", ""16"", ""9"", ""17"", ""11"", ""6"", ""10"", ""13"", ""7"", ""12""], ""trial_index"": 37}"
A11DOB7V9YBL4S:3PPTZCWALQKVKW40WYPYUMWN5L7QZ1,38,1487919429989,"{""rt"": [37547, 828, 6050], ""trial_type"": ""graph"", ""infoCost"": 0.05, ""minTime"": 45, ""actionTimes"": [37547, 38874, 45658], ""time_elapsed"": 2142329, ""actions"": [""right"", ""right"", ""down""], ""trialIndex"": 15, ""score"": 1.62, ""internal_node_id"": ""0.0-1.0-14.0"", ""clickTimes"": [1467, 1838, 2344, 3267, 3965, 4257, 5348, 5541, 6361, 6586, 13741, 14787, 15395, 16025, 16520, 16745], ""path"": [1, 2, 6, 11], ""trialID"": 16, ""clicks"": [""3"", ""7"", ""13"", ""12"", ""4"", ""8"", ""2"", ""6"", ""5"", ""9"", ""15"", ""14"", ""10"", ""11"", ""17"", ""16""], ""trial_index"": 38}"
A11DOB7V9YBL4S:3PPTZCWALQKVKW40WYPYUMWN5L7QZ1,39,1487919482647,"{""rt"": [45315, 136, 38], ""trial_type"": ""graph"", ""infoCost"": 0.05, ""minTime"": 45, ""actionTimes"": [45315, 45955, 46743], ""time_elapsed"": 2194987, ""actions"": [""down"", ""down"", ""right""], ""trialIndex"": 16, ""score"": 2.11, ""internal_node_id"": ""0.0-1.0-15.0"", ""clickTimes"": [2778, 3047, 3902, 4566, 4802, 5612, 6220, 6468, 7019, 7851, 8144, 8524, 9111, 10337, 11429, 12914], ""path"": [1, 5, 9, 17], ""trialID"": 7, ""clicks"": [""14"", ""8"", ""4"", ""2"", ""6"", ""11"", ""5"", ""9"", ""16"", ""3"", ""7"", ""13"", ""12"", ""10"", ""17"", ""15""], ""trial_index"": 39}"
A11DOB7V9YBL4S:3PPTZCWALQKVKW40WYPYUMWN5L7QZ1,40,1487919531721,"{""rt"": [21762, 109, 23224], ""trial_type"": ""graph"", ""infoCost"": 0.05, ""minTime"": 45, ""actionTimes"": [21762, 22368, 46322], ""time_elapsed"": 2244061, ""actions"": [""up"", ""up"", ""right""], ""trialIndex"": 17, ""score"": 1.17, ""internal_node_id"": ""0.0-1.0-16.0"", ""clickTimes"": [1411, 1735, 2057, 2456, 3199, 3402, 3728, 4403, 5325, 5607, 6191, 6417, 7103, 7283, 7620, 8509], ""path"": [1, 3, 7, 13], ""trialID"": 9, ""clicks"": [""3"", ""7"", ""13"", ""12"", ""4"", ""8"", ""14"", ""15"", ""5"", ""9"", ""16"", ""17"", ""2"", ""6"", ""11"", ""10""], ""trial_index"": 40}"
A11DOB7V9YBL4S:3PPTZCWALQKVKW40WYPYUMWN5L7QZ1,41,1487919587895,"{""rt"": [50740, 338, 602], ""trial_type"": ""graph"", ""infoCost"": 0.05, ""minTime"": 45, ""actionTimes"": [50740, 51571, 52910], ""time_elapsed"": 2300235, ""actions"": [""left"", ""left"", ""down""], ""trialIndex"": 18, ""score"": 2.8, ""internal_node_id"": ""0.0-1.0-17.0"", ""clickTimes"": [3905, 4489, 4917, 5626, 7246, 7572, 10013, 10936, 12275, 12545, 13040, 13501, 14255, 14446, 14784, 15110], ""path"": [1, 4, 8, 15], ""trialID"": 14, ""clicks"": [""3"", ""7"", ""13"", ""12"", ""2"", ""6"", ""10"", ""11"", ""17"", ""9"", ""5"", ""16"", ""4"", ""8"", ""14"", ""15""], ""trial_index"": 41}"
A11DOB7V9YBL4S:3PPTZCWALQKVKW40WYPYUMWN5L7QZ1,42,1487919636272,"{""rt"": [11961, 7711, 24576], ""trial_type"": ""graph"", ""infoCost"": 0.05, ""minTime"": 45, ""actionTimes"": [11961, 20174, 45489], ""time_elapsed"": 2348612, ""actions"": [""down"", ""down"", ""right""], ""trialIndex"": 19, ""score"": 4.66, ""internal_node_id"": ""0.0-1.0-18.0"", ""clickTimes"": [1500, 1736, 2096, 2726, 3209, 3502, 3750, 3986, 4684, 4897, 5178, 5549, 5910, 6540, 6933, 9127], ""path"": [1, 5, 9, 17], ""trialID"": 19, ""clicks"": [""2"", ""6"", ""11"", ""10"", ""3"", ""7"", ""13"", ""12"", ""14"", ""8"", ""15"", ""4"", ""5"", ""9"", ""17"", ""16""], ""trial_index"": 42}"
A11DOB7V9YBL4S:3PPTZCWALQKVKW40WYPYUMWN5L7QZ1,43,1487919684694,"{""rt"": [38444, 352, 5451], ""trial_type"": ""graph"", ""infoCost"": 0.05, ""minTime"": 45, ""actionTimes"": [38444, 39286, 45474], ""time_elapsed"": 2397034, ""actions"": [""up"", ""up"", ""left""], ""trialIndex"": 20, ""score"": 1.62, ""internal_node_id"": ""0.0-1.0-19.0"", ""clickTimes"": [530, 1014, 1284, 1711, 2262, 2510, 2848, 3399, 3928, 4130, 4625, 5019, 5728, 5975, 6481, 6976], ""path"": [1, 3, 7, 12], ""trialID"": 11, ""clicks"": [""12"", ""7"", ""3"", ""13"", ""2"", ""6"", ""10"", ""11"", ""17"", ""9"", ""16"", ""5"", ""15"", ""8"", ""4"", ""14""], ""trial_index"": 43}"
A11DOB7V9YBL4S:3PPTZCWALQKVKW40WYPYUMWN5L7QZ1,44,1487919693494,"{""rt"": 7791, ""trial_type"": ""button-response"", ""button_pressed"": 0, ""stimulus"": ""<h1 id=\""thiscompletesthehit\"">This completes the HIT</h1>\n\n<p>One or your profits was randomly selected as your bonus. You will be awarded a bonus of $1.62</p>"", ""internal_node_id"": ""0.0-2.0"", ""time_elapsed"": 2405834, ""trial_index"": 44}"
A11P1OS26E6AMO:3IKZ72A5B4G4CI08FU3AN0L0O5DFN2,0,1487898411650,"{""rt"": 125997, ""trial_type"": ""instructions"", ""view_history"": ""[{\""page_index\"":0,\""viewing_time\"":53220},{\""page_index\"":1,\""viewing_time\"":52803},{\""page_index\"":2,\""viewing_time\"":19972}]"", ""internal_node_id"": ""0.0-0.0-0.0"", ""time_elapsed"": 125999, ""trial_index"": 0}"
A11P1OS26E6AMO:3IKZ72A5B4G4CI08FU3AN0L0O5DFN2,1,1487898444863,"{""rt"": 29033, ""trial_type"": ""survey-multi-choice"", ""responses"": ""[\""1\"",\""True\"",\""$0.05\"",\""As many or as few as I wish\"",\""My earnings for each round are equal to the value of one of the locations I visit (minus the cost of making observations), and I will actually be paid the earnings from one of the 20 rounds.\""]"", ""internal_node_id"": ""0.0-0.0-1.0"", ""time_elapsed"": 159212, ""questions"": ""[\""How many flights are there per round?\"",\""True or false: The hidden values will change each time I start a new round.\"",\""How much does it cost to observe each hidden value?\"",\""How many hidden values am I allowed to observe in each round?\"",\""Which statement is TRUE?\""]"", ""correct"": [false, true, true, true, false], ""trial_index"": 1}"
A11P1OS26E6AMO:3IKZ72A5B4G4CI08FU3AN0L0O5DFN2,2,1487898500503,"{""rt"": 54636, ""trial_type"": ""instructions"", ""view_history"": ""[{\""page_index\"":0,\""viewing_time\"":6501},{\""page_index\"":1,\""viewing_time\"":42176},{\""page_index\"":2,\""viewing_time\"":5957}]"", ""internal_node_id"": ""0.0-0.1-0.1"", ""time_elapsed"": 214851, ""trial_index"": 2}"
A11P1OS26E6AMO:3IKZ72A5B4G4CI08FU3AN0L0O5DFN2,3,1487898532767,"{""rt"": 27874, ""trial_type"": ""survey-multi-choice"", ""responses"": ""[\""1\"",\""True\"",\""$0.05\"",\""As many or as few as I wish\"",\""My earnings for each round are equal to the <i>sum</i> of the values of all locations I visit (minus the cost of making observations), and I will be paid the earnings from one of the 20 rounds.\""]"", ""internal_node_id"": ""0.0-0.1-1.1"", ""time_elapsed"": 247116, ""questions"": ""[\""How many flights are there per round?\"",\""True or false: The hidden values will change each time I start a new round.\"",\""How much does it cost to observe each hidden value?\"",\""How many hidden values am I allowed to observe in each round?\"",\""Which statement is TRUE?\""]"", ""correct"": [false, true, true, true, true], ""trial_index"": 3}"
A11P1OS26E6AMO:3IKZ72A5B4G4CI08FU3AN0L0O5DFN2,4,1487898625200,"{""rt"": 91430, ""trial_type"": ""instructions"", ""view_history"": ""[{\""page_index\"":0,\""viewing_time\"":26245},{\""page_index\"":1,\""viewing_time\"":54582},{\""page_index\"":2,\""viewing_time\"":10602}]"", ""internal_node_id"": ""0.0-0.2-0.2"", ""time_elapsed"": 339549, ""trial_index"": 4}"
A11P1OS26E6AMO:3IKZ72A5B4G4CI08FU3AN0L0O5DFN2,5,1487898671112,"{""rt"": 43439, ""trial_type"": ""survey-multi-choice"", ""responses"": ""[\""1\"",\""False\"",\""$0.05\"",\""As many or as few as I wish\"",\""My earnings for each round are equal to the value of one of the locations I visit (minus the cost of making observations), and I will actually be paid the earnings from one of the 20 rounds.\""]"", ""internal_node_id"": ""0.0-0.2-1.2"", ""time_elapsed"": 385459, ""questions"": ""[\""How many flights are there per round?\"",\""True or false: The hidden values will change each time I start a new round.\"",\""How much does it cost to observe each hidden value?\"",\""How many hidden values am I allowed to observe in each round?\"",\""Which statement is TRUE?\""]"", ""correct"": [false, false, true, true, false], ""trial_index"": 5}"
A11P1OS26E6AMO:3IKZ72A5B4G4CI08FU3AN0L0O5DFN2,6,1487898690266,"{""rt"": 18149, ""trial_type"": ""instructions"", ""view_history"": ""[{\""page_index\"":0,\""viewing_time\"":15904},{\""page_index\"":1,\""viewing_time\"":1329},{\""page_index\"":2,\""viewing_time\"":915}]"", ""internal_node_id"": ""0.0-0.3-0.3"", ""time_elapsed"": 404614, ""trial_index"": 6}"
A11P1OS26E6AMO:3IKZ72A5B4G4CI08FU3AN0L0O5DFN2,7,1487898727792,"{""rt"": 36485, ""trial_type"": ""survey-multi-choice"", ""responses"": ""[\""3\"",\""True\"",\""$0.05\"",\""As many or as few as I wish\"",\""My earnings for each round are equal to the <i>sum</i> of the values of all locations I visit (minus the cost of making observations), and I will be paid the earnings from one of the 20 rounds.\""]"", ""internal_node_id"": ""0.0-0.3-1.3"", ""time_elapsed"": 442140, ""questions"": ""[\""How many flights are there per round?\"",\""True or false: The hidden values will change each time I start a new round.\"",\""How much does it cost to observe each hidden value?\"",\""How many hidden values am I allowed to observe in each round?\"",\""Which statement is TRUE?\""]"", ""correct"": [true, true, true, true, true], ""trial_index"": 7}"
A11P1OS26E6AMO:3IKZ72A5B4G4CI08FU3AN0L0O5DFN2,8,1487898797488,"{""rt"": [11727, 6883, 4206], ""trial_type"": ""graph"", ""infoCost"": 0.05, ""minTime"": 45, ""actionTimes"": [11728, 25943, 37370], ""time_elapsed"": 511837, ""actions"": [""down"", ""down"", ""right""], ""trialIndex"": 1, ""score"": 0.52, ""internal_node_id"": ""0.0-1.0-0.0"", ""clickTimes"": [5545, 24907], ""path"": [1, 5, 9, 17], ""trialID"": 5, ""clicks"": [""5"", ""9""], ""trial_index"": 8}"
A11P1OS26E6AMO:3IKZ72A5B4G4CI08FU3AN0L0O5DFN2,9,1487898875630,"{""rt"": [5706, 10748, 3353], ""trial_type"": ""graph"", ""infoCost"": 0.05, ""minTime"": 45, ""actionTimes"": [5707, 23828, 34432], ""time_elapsed"": 589979, ""actions"": [""up"", ""up"", ""right""], ""trialIndex"": 2, ""score"": 0.25, ""internal_node_id"": ""0.0-1.0-1.0"", ""clickTimes"": [2932, 5053, 31669, 33462], ""path"": [1, 3, 7, 13], ""trialID"": 18, ""clicks"": [""3"", ""5"", ""13"", ""12""], ""trial_index"": 9}"
A11P1OS26E6AMO:3IKZ72A5B4G4CI08FU3AN0L0O5DFN2,10,1487898960196,"{""rt"": [24651, 586, 862], ""trial_type"": ""graph"", ""infoCost"": 0.05, ""minTime"": 45, ""actionTimes"": [24651, 31791, 39928], ""time_elapsed"": 674544, ""actions"": [""left"", ""left"", ""down""], ""trialIndex"": 3, ""score"": 3, ""internal_node_id"": ""0.0-1.0-2.0"", ""clickTimes"": [1208, 3361, 6970, 8417, 10003, 11240, 12401, 13118, 14951, 15805, 23063, 56614], ""path"": [1, 4, 8, 15], ""trialID"": 14, ""clicks"": [""13"", ""15"", ""4"", ""2"", ""11"", ""10"", ""17"", ""16"", ""14"", ""12"", ""5"", ""3""], ""trial_index"": 10}"
A11P1OS26E6AMO:3IKZ72A5B4G4CI08FU3AN0L0O5DFN2,11,1487899038110,"{""rt"": [19566, 4580, 4141], ""trial_type"": ""graph"", ""infoCost"": 0.05, ""minTime"": 45, ""actionTimes"": [19568, 30406, 41769], ""time_elapsed"": 752458, ""actions"": [""left"", ""left"", ""down""], ""trialIndex"": 4, ""score"": 1.46, ""internal_node_id"": ""0.0-1.0-3.0"", ""clickTimes"": [1917, 2733, 3549, 4980, 6791, 8302, 9210, 10472, 11200, 13093, 13992, 18365, 30081], ""path"": [1, 4, 8, 15], ""trialID"": 17, ""clicks"": [""3"", ""4"", ""5"", ""2"", ""16"", ""14"", ""15"", ""12"", ""13"", ""10"", ""11"", ""17"", ""1""], ""trial_index"": 11}"
A11P1OS26E6AMO:3IKZ72A5B4G4CI08FU3AN0L0O5DFN2,12,1487899130861,"{""rt"": [9568, 10868, 2828], ""trial_type"": ""graph"", ""infoCost"": 0.05, ""minTime"": 45, ""actionTimes"": [9569, 28168, 37998], ""time_elapsed"": 845209, ""actions"": [""right"", ""right"", ""up""], ""trialIndex"": 5, ""score"": 0.47, ""internal_node_id"": ""0.0-1.0-4.0"", ""clickTimes"": [6164, 7310, 8103, 18219, 22984, 23660, 25085, 25728], ""path"": [1, 2, 6, 10], ""trialID"": 0, ""clicks"": [""3"", ""5"", ""2"", ""4"", ""15"", ""14"", ""10"", ""11""], ""trial_index"": 12}"
A11P1OS26E6AMO:3IKZ72A5B4G4CI08FU3AN0L0O5DFN2,13,1487899198731,"{""rt"": [8282, 9108, 13326], ""trial_type"": ""graph"", ""infoCost"": 0.05, ""minTime"": 45, ""actionTimes"": [8286, 24788, 44665], ""time_elapsed"": 913079, ""actions"": [""left"", ""left"", ""up""], ""trialIndex"": 6, ""score"": 0.44, ""internal_node_id"": ""0.0-1.0-5.0"", ""clickTimes"": [5480, 6266, 6895, 7484, 16695, 17484, 18486, 19382, 20178, 20851, 21948, 22715], ""path"": [1, 4, 8, 14], ""trialID"": 1, ""clicks"": [""3"", ""4"", ""5"", ""2"", ""14"", ""15"", ""10"", ""11"", ""17"", ""16"", ""12"", ""13""], ""trial_index"": 13}"
A11P1OS26E6AMO:3IKZ72A5B4G4CI08FU3AN0L0O5DFN2,14,1487899270079,"{""rt"": [14995, 1877, 5148], ""trial_type"": ""graph"", ""infoCost"": 0.05, ""minTime"": 45, ""actionTimes"": [14997, 23146, 35315], ""time_elapsed"": 984428, ""actions"": [""up"", ""up"", ""left""], ""trialIndex"": 7, ""score"": 0.44, ""internal_node_id"": ""0.0-1.0-6.0"", ""clickTimes"": [1482, 2361, 3071, 3845, 6032, 6815, 7675, 8758, 9554, 10150, 10996, 11974], ""path"": [1, 3, 7, 12], ""trialID"": 15, ""clicks"": [""2"", ""3"", ""4"", ""5"", ""14"", ""15"", ""12"", ""13"", ""10"", ""11"", ""17"", ""16""], ""trial_index"": 14}"
A11P1OS26E6AMO:3IKZ72A5B4G4CI08FU3AN0L0O5DFN2,15,1487899338638,"{""rt"": [18408, 942, 433], ""trial_type"": ""graph"", ""infoCost"": 0.05, ""minTime"": 45, ""actionTimes"": [18408, 26224, 33677], ""time_elapsed"": 1052987, ""actions"": [""left"", ""left"", ""up""], ""trialIndex"": 8, ""score"": 0.43, ""internal_node_id"": ""0.0-1.0-7.0"", ""clickTimes"": [995, 1722, 2530, 3156, 4684, 5520, 6491, 7730, 11457, 14212, 14792, 25787], ""path"": [1, 4, 8, 14], ""trialID"": 7, ""clicks"": [""3"", ""5"", ""4"", ""2"", ""10"", ""13"", ""14"", ""15"", ""11"", ""16"", ""17"", ""12""], ""trial_index"": 15}"
A11P1OS26E6AMO:3IKZ72A5B4G4CI08FU3AN0L0O5DFN2,16,1487899420021,"{""rt"": [28565, 3274, 860], ""trial_type"": ""graph"", ""infoCost"": 0.05, ""minTime"": 45, ""actionTimes"": [28566, 39051, 47303], ""time_elapsed"": 1134369, ""actions"": [""right"", ""right"", ""up""], ""trialIndex"": 9, ""score"": 1.16, ""internal_node_id"": ""0.0-1.0-8.0"", ""clickTimes"": [1082, 1920, 2852, 3722, 5437, 6383, 9187, 22719, 59112, 60512], ""path"": [1, 2, 6, 10], ""trialID"": 8, ""clicks"": [""3"", ""5"", ""2"", ""4"", ""15"", ""14"", ""10"", ""11"", ""12"", ""13""], ""trial_index"": 16}"
A11P1OS26E6AMO:3IKZ72A5B4G4CI08FU3AN0L0O5DFN2,17,1487899500071,"{""rt"": [21332, 904, 450], ""trial_type"": ""graph"", ""infoCost"": 0.05, ""minTime"": 45, ""actionTimes"": [21334, 28603, 36138], ""time_elapsed"": 1214419, ""actions"": [""right"", ""right"", ""down""], ""trialIndex"": 10, ""score"": 1.82, ""internal_node_id"": ""0.0-1.0-9.0"", ""clickTimes"": [2392, 3777, 4508, 5437, 6752, 8468, 13010, 14028, 15281, 16035, 17551, 18814], ""path"": [1, 2, 6, 11], ""trialID"": 16, ""clicks"": [""3"", ""4"", ""5"", ""2"", ""10"", ""11"", ""12"", ""13"", ""14"", ""15"", ""16"", ""17""], ""trial_index"": 17}"
A11P1OS26E6AMO:3IKZ72A5B4G4CI08FU3AN0L0O5DFN2,18,1487899568384,"{""rt"": [9044, 2557, 391], ""trial_type"": ""graph"", ""infoCost"": 0.05, ""minTime"": 45, ""actionTimes"": [9045, 18823, 26585], ""time_elapsed"": 1282732, ""actions"": [""right"", ""right"", ""down""], ""trialIndex"": 11, ""score"": 2.74, ""internal_node_id"": ""0.0-1.0-10.0"", ""clickTimes"": [1455, 2761, 3772, 7257, 8141, 40862], ""path"": [1, 2, 6, 11], ""trialID"": 3, ""clicks"": [""3"", ""5"", ""2"", ""10"", ""11"", ""4""], ""trial_index"": 18}"
A11P1OS26E6AMO:3IKZ72A5B4G4CI08FU3AN0L0O5DFN2,19,1487899647759,"{""rt"": [22417, 2098, 6579], ""trial_type"": ""graph"", ""infoCost"": 0.05, ""minTime"": 45, ""actionTimes"": [22419, 31741, 45504], ""time_elapsed"": 1362107, ""actions"": [""right"", ""right"", ""up""], ""trialIndex"": 12, ""score"": 1.55, ""internal_node_id"": ""0.0-1.0-11.0"", ""clickTimes"": [4684, 16753, 17716, 18806, 19902, 20764, 30289, 30860, 39585, 40507, 56492, 59993], ""path"": [1, 2, 6, 10], ""trialID"": 19, ""clicks"": [""4"", ""14"", ""15"", ""2"", ""10"", ""11"", ""3"", ""5"", ""16"", ""17"", ""13"", ""12""], ""trial_index"": 19}"
A11P1OS26E6AMO:3IKZ72A5B4G4CI08FU3AN0L0O5DFN2,20,1487899715020,"{""rt"": [19756, 706, 498], ""trial_type"": ""graph"", ""infoCost"": 0.05, ""minTime"": 45, ""actionTimes"": [19758, 26884, 34735], ""time_elapsed"": 1429368, ""actions"": [""up"", ""up"", ""right""], ""trialIndex"": 13, ""score"": 2.61, ""internal_node_id"": ""0.0-1.0-12.0"", ""clickTimes"": [2364, 3402, 4398, 5187, 7275, 7852, 8706, 9622, 11612, 12567, 13953, 15459], ""path"": [1, 3, 7, 13], ""trialID"": 13, ""clicks"": [""3"", ""5"", ""4"", ""2"", ""11"", ""10"", ""16"", ""17"", ""14"", ""15"", ""12"", ""13""], ""trial_index"": 20}"
A11P1OS26E6AMO:3IKZ72A5B4G4CI08FU3AN0L0O5DFN2,21,1487899786467,"{""rt"": [16208, 2366, 418], ""trial_type"": ""graph"", ""infoCost"": 0.05, ""minTime"": 45, ""actionTimes"": [16209, 25288, 32679], ""time_elapsed"": 1500815, ""actions"": [""up"", ""up"", ""left""], ""trialIndex"": 14, ""score"": -0.73, ""internal_node_id"": ""0.0-1.0-13.0"", ""clickTimes"": [2691, 3996, 4884, 6911, 7505, 8171, 9259, 9955, 11625, 12376, 23493, 24261], ""path"": [1, 3, 7, 12], ""trialID"": 12, ""clicks"": [""3"", ""13"", ""12"", ""2"", ""5"", ""4"", ""14"", ""15"", ""16"", ""17"", ""10"", ""11""], ""trial_index"": 21}"
A11P1OS26E6AMO:3IKZ72A5B4G4CI08FU3AN0L0O5DFN2,22,1487899862794,"{""rt"": [23153, 495, 517], ""trial_type"": ""graph"", ""infoCost"": 0.05, ""minTime"": 45, ""actionTimes"": [23154, 31163, 38966], ""time_elapsed"": 1577142, ""actions"": [""down"", ""down"", ""left""], ""trialIndex"": 15, ""score"": 2.09, ""internal_node_id"": ""0.0-1.0-14.0"", ""clickTimes"": [15563, 16869, 18020, 19132, 19782, 20816, 21598], ""path"": [1, 5, 9, 16], ""trialID"": 11, ""clicks"": [""3"", ""4"", ""2"", ""10"", ""11"", ""5"", ""16""], ""trial_index"": 22}"
A11P1OS26E6AMO:3IKZ72A5B4G4CI08FU3AN0L0O5DFN2,23,1487899933172,"{""rt"": [21859, 1146, 3117], ""trial_type"": ""graph"", ""infoCost"": 0.05, ""minTime"": 45, ""actionTimes"": [21861, 29293, 40088], ""time_elapsed"": 1647521, ""actions"": [""right"", ""right"", ""down""], ""trialIndex"": 16, ""score"": 1.75, ""internal_node_id"": ""0.0-1.0-15.0"", ""clickTimes"": [1663, 3406, 4247, 5319, 6885, 7685, 8538, 9691, 11647, 12500, 13246, 14016], ""path"": [1, 2, 6, 11], ""trialID"": 6, ""clicks"": [""4"", ""14"", ""15"", ""3"", ""12"", ""13"", ""2"", ""5"", ""10"", ""11"", ""17"", ""16""], ""trial_index"": 23}"
A11P1OS26E6AMO:3IKZ72A5B4G4CI08FU3AN0L0O5DFN2,24,1487900007379,"{""rt"": [8310, 3297, 707], ""trial_type"": ""graph"", ""infoCost"": 0.05, ""minTime"": 45, ""actionTimes"": [8311, 18748, 26472], ""time_elapsed"": 1721727, ""actions"": [""right"", ""right"", ""up""], ""trialIndex"": 17, ""score"": 0.44, ""internal_node_id"": ""0.0-1.0-16.0"", ""clickTimes"": [1248, 2750, 3714, 4582, 5852, 6675, 15992, 16800], ""path"": [1, 2, 6, 10], ""trialID"": 2, ""clicks"": [""3"", ""5"", ""4"", ""2"", ""10"", ""11"", ""14"", ""15""], ""trial_index"": 24}"
A11P1OS26E6AMO:3IKZ72A5B4G4CI08FU3AN0L0O5DFN2,25,1487900077163,"{""rt"": [10442, 1463, 6634], ""trial_type"": ""graph"", ""infoCost"": 0.05, ""minTime"": 45, ""actionTimes"": [10444, 19079, 32934], ""time_elapsed"": 1791512, ""actions"": [""left"", ""left"", ""up""], ""trialIndex"": 18, ""score"": 0.22, ""internal_node_id"": ""0.0-1.0-17.0"", ""clickTimes"": [2180, 3053, 4635, 5362, 6547, 7455, 8060, 9803, 46771], ""path"": [1, 4, 8, 14], ""trialID"": 9, ""clicks"": [""3"", ""5"", ""16"", ""17"", ""4"", ""14"", ""15"", ""2"", ""13""], ""trial_index"": 25}"
A11P1OS26E6AMO:3IKZ72A5B4G4CI08FU3AN0L0O5DFN2,26,1487900160507,"{""rt"": [24130, 535, 1417], ""trial_type"": ""graph"", ""infoCost"": 0.05, ""minTime"": 45, ""actionTimes"": [24131, 30969, 39585], ""time_elapsed"": 1874855, ""actions"": [""left"", ""left"", ""up""], ""trialIndex"": 19, ""score"": -0.03, ""internal_node_id"": ""0.0-1.0-18.0"", ""clickTimes"": [8847, 10169, 10787, 11364, 12299, 13037, 15590, 16496, 20224, 21000, 21703, 22362], ""path"": [1, 4, 8, 14], ""trialID"": 10, ""clicks"": [""2"", ""3"", ""4"", ""5"", ""10"", ""11"", ""12"", ""13"", ""14"", ""15"", ""16"", ""17""], ""trial_index"": 26}"
A11P1OS26E6AMO:3IKZ72A5B4G4CI08FU3AN0L0O5DFN2,27,1487900254452,"{""rt"": [12208, 5743, 4086], ""trial_type"": ""graph"", ""infoCost"": 0.05, ""minTime"": 45, ""actionTimes"": [12211, 25005, 36681], ""time_elapsed"": 1968800, ""actions"": [""left"", ""left"", ""down""], ""trialIndex"": 20, ""score"": 1.77, ""internal_node_id"": ""0.0-1.0-19.0"", ""clickTimes"": [6294, 7115, 7781, 8615, 9984, 10826], ""path"": [1, 4, 8, 15], ""trialID"": 4, ""clicks"": [""3"", ""5"", ""2"", ""4"", ""14"", ""15""], ""trial_index"": 27}"
A11P1OS26E6AMO:3IKZ72A5B4G4CI08FU3AN0L0O5DFN2,28,1487900263223,"{""rt"": 7729, ""trial_type"": ""button-response"", ""button_pressed"": 0, ""stimulus"": ""<h1 id=\""thiscompletesthehit\"">This completes the HIT</h1>\n\n<p>One or your profits was randomly selected as your bonus. You will be awarded a bonus of $2.74</p>"", ""internal_node_id"": ""0.0-2.0"", ""time_elapsed"": 1977571, ""trial_index"": 28}"
A14NP6X071S7GK:3TY7ZAOG5FKC780FFZS9S1HSO8J0KE,0,1487899227175,"{""rt"": 98348, ""trial_type"": ""instructions"", ""view_history"": ""[{\""page_index\"":0,\""viewing_time\"":40387},{\""page_index\"":1,\""viewing_time\"":49409},{\""page_index\"":2,\""viewing_time\"":8550}]"", ""internal_node_id"": ""0.0-0.0-0.0"", ""time_elapsed"": 98349, ""trial_index"": 0}"
A14NP6X071S7GK:3TY7ZAOG5FKC780FFZS9S1HSO8J0KE,1,1487899253501,"{""rt"": 23411, ""trial_type"": ""survey-multi-choice"", ""responses"": ""[\""2\"",\""True\"",\""$0.05\"",\""As many or as few as I wish\"",\""My earnings for each round are equal to the <i>sum</i> of the values of all locations I visit (minus the cost of making observations), and I will be paid the earnings from one of the 20 rounds.\""]"", ""internal_node_id"": ""0.0-0.0-1.0"", ""time_elapsed"": 124675, ""questions"": ""[\""How many flights are there per round?\"",\""True or false: The hidden values will change each time I start a new round.\"",\""How much does it cost to observe each hidden value?\"",\""How many hidden values am I allowed to observe in each round?\"",\""Which statement is TRUE?\""]"", ""correct"": [false, true, true, true, true], ""trial_index"": 1}"
A14NP6X071S7GK:3TY7ZAOG5FKC780FFZS9S1HSO8J0KE,2,1487899256322,"{""rt"": 1817, ""trial_type"": ""instructions"", ""view_history"": ""[{\""page_index\"":0,\""viewing_time\"":991},{\""page_index\"":1,\""viewing_time\"":655},{\""page_index\"":2,\""viewing_time\"":171}]"", ""internal_node_id"": ""0.0-0.1-0.1"", ""time_elapsed"": 127496, ""trial_index"": 2}"
A14NP6X071S7GK:3TY7ZAOG5FKC780FFZS9S1HSO8J0KE,3,1487899274009,"{""rt"": 15764, ""trial_type"": ""survey-multi-choice"", ""responses"": ""[\""1\"",\""True\"",\""$0.05\"",\""As many or as few as I wish\"",\""My earnings for each round are equal to the <i>sum</i> of the values of all locations I visit (minus the cost of making observations), and I will be paid the earnings from one of the 20 rounds.\""]"", ""internal_node_id"": ""0.0-0.1-1.1"", ""time_elapsed"": 145182, ""questions"": ""[\""How many flights are there per round?\"",\""True or false: The hidden values will change each time I start a new round.\"",\""How much does it cost to observe each hidden value?\"",\""How many hidden values am I allowed to observe in each round?\"",\""Which statement is TRUE?\""]"", ""correct"": [false, true, true, true, true], ""trial_index"": 3}"
A14NP6X071S7GK:3TY7ZAOG5FKC780FFZS9S1HSO8J0KE,4,1487899277156,"{""rt"": 2145, ""trial_type"": ""instructions"", ""view_history"": ""[{\""page_index\"":0,\""viewing_time\"":1042},{\""page_index\"":1,\""viewing_time\"":599},{\""page_index\"":2,\""viewing_time\"":504}]"", ""internal_node_id"": ""0.0-0.2-0.2"", ""time_elapsed"": 148329, ""trial_index"": 4}"
A14NP6X071S7GK:3TY7ZAOG5FKC780FFZS9S1HSO8J0KE,5,1487899287755,"{""rt"": 8308, ""trial_type"": ""survey-multi-choice"", ""responses"": ""[\""4\"",\""True\"",\""$0.05\"",\""As many or as few as I wish\"",\""My earnings for each round are equal to the <i>sum</i> of the values of all locations I visit (minus the cost of making observations), and I will be paid the earnings from one of the 20 rounds.\""]"", ""internal_node_id"": ""0.0-0.2-1.2"", ""time_elapsed"": 158929, ""questions"": ""[\""How many flights are there per round?\"",\""True or false: The hidden values will change each time I start a new round.\"",\""How much does it cost to observe each hidden value?\"",\""How many hidden values am I allowed to observe in each round?\"",\""Which statement is TRUE?\""]"", ""correct"": [false, true, true, true, true], ""trial_index"": 5}"
A14NP6X071S7GK:3TY7ZAOG5FKC780FFZS9S1HSO8J0KE,6,1487899290666,"{""rt"": 1907, ""trial_type"": ""instructions"", ""view_history"": ""[{\""page_index\"":0,\""viewing_time\"":1266},{\""page_index\"":1,\""viewing_time\"":506},{\""page_index\"":2,\""viewing_time\"":135}]"", ""internal_node_id"": ""0.0-0.3-0.3"", ""time_elapsed"": 161840, ""trial_index"": 6}"
A14NP6X071S7GK:3TY7ZAOG5FKC780FFZS9S1HSO8J0KE,7,1487899298230,"{""rt"": 6527, ""trial_type"": ""survey-multi-choice"", ""responses"": ""[\""3\"",\""True\"",\""$0.05\"",\""As many or as few as I wish\"",\""My earnings for each round are equal to the <i>sum</i> of the values of all locations I visit (minus the cost of making observations), and I will be paid the earnings from one of the 20 rounds.\""]"", ""internal_node_id"": ""0.0-0.3-1.3"", ""time_elapsed"": 169404, ""questions"": ""[\""How many flights are there per round?\"",\""True or false: The hidden values will change each time I start a new round.\"",\""How much does it cost to observe each hidden value?\"",\""How many hidden values am I allowed to observe in each round?\"",\""Which statement is TRUE?\""]"", ""correct"": [true, true, true, true, true], ""trial_index"": 7}"
A14NP6X071S7GK:3TY7ZAOG5FKC780FFZS9S1HSO8J0KE,8,1487899365299,"{""rt"": [12430, 4485, 463], ""trial_type"": ""graph"", ""infoCost"": 0.05, ""minTime"": 45, ""actionTimes"": [12431, 22980, 29414], ""time_elapsed"": 236473, ""actions"": [""right"", ""right"", ""down""], ""trialIndex"": 1, ""score"": 2.12, ""internal_node_id"": ""0.0-1.0-0.0"", ""clickTimes"": [5558, 7121, 10274, 10938, 21270, 22039], ""path"": [1, 2, 6, 11], ""trialID"": 16, ""clicks"": [""2"", ""4"", ""5"", ""3"", ""10"", ""11""], ""trial_index"": 8}"
A14NP6X071S7GK:3TY7ZAOG5FKC780FFZS9S1HSO8J0KE,9,1487899433240,"{""rt"": [23646, 432, 400], ""trial_type"": ""graph"", ""infoCost"": 0.05, ""minTime"": 45, ""actionTimes"": [23646, 29878, 36211], ""time_elapsed"": 304413, ""actions"": [""left"", ""left"", ""down""], ""trialIndex"": 2, ""score"": 1.71, ""internal_node_id"": ""0.0-1.0-1.0"", ""clickTimes"": [6370, 7222, 7953, 8517, 11712, 12455, 19361, 20097, 21361, 22086], ""path"": [1, 4, 8, 15], ""trialID"": 2, ""clicks"": [""3"", ""2"", ""5"", ""4"", ""14"", ""15"", ""10"", ""11"", ""6"", ""8""], ""trial_index"": 9}"
A14NP6X071S7GK:3TY7ZAOG5FKC780FFZS9S1HSO8J0KE,10,1487899499424,"{""rt"": [8045, 1490, 1048], ""trial_type"": ""graph"", ""infoCost"": 0.05, ""minTime"": 45, ""actionTimes"": [8046, 15411, 22405], ""time_elapsed"": 370598, ""actions"": [""right"", ""right"", ""down""], ""trialIndex"": 3, ""score"": 2.74, ""internal_node_id"": ""0.0-1.0-2.0"", ""clickTimes"": [2991, 4372, 4900, 5315, 6091, 6823], ""path"": [1, 2, 6, 11], ""trialID"": 3, ""clicks"": [""2"", ""3"", ""4"", ""5"", ""11"", ""10""], ""trial_index"": 10}"
A14NP6X071S7GK:3TY7ZAOG5FKC780FFZS9S1HSO8J0KE,11,1487899567159,"{""rt"": [10527, 366, 392], ""trial_type"": ""graph"", ""infoCost"": 0.05, ""minTime"": 45, ""actionTimes"": [10527, 16724, 23056], ""time_elapsed"": 438333, ""actions"": [""left"", ""left"", ""up""], ""trialIndex"": 4, ""score"": 0.63, ""internal_node_id"": ""0.0-1.0-3.0"", ""clickTimes"": [2063, 2718, 3249, 3989, 5450, 6115, 6906, 7409], ""path"": [1, 4, 8, 14], ""trialID"": 7, ""clicks"": [""3"", ""5"", ""4"", ""2"", ""14"", ""15"", ""11"", ""10""], ""trial_index"": 11}"
A14NP6X071S7GK:3TY7ZAOG5FKC780FFZS9S1HSO8J0KE,12,1487899772128,"{""rt"": [9532, 469, 353], ""trial_type"": ""graph"", ""infoCost"": 0.05, ""minTime"": 45, ""actionTimes"": [9532, 15849, 22138], ""time_elapsed"": 643301, ""actions"": [""down"", ""down"", ""left""], ""trialIndex"": 5, ""score"": 1.89, ""internal_node_id"": ""0.0-1.0-4.0"", ""clickTimes"": [1843, 2439, 2976, 3507, 5150, 6027, 6827, 7299], ""path"": [1, 5, 9, 16], ""trialID"": 13, ""clicks"": [""3"", ""5"", ""2"", ""4"", ""16"", ""17"", ""15"", ""14""], ""trial_index"": 12}"
A14NP6X071S7GK:3TY7ZAOG5FKC780FFZS9S1HSO8J0KE,13,1487899863837,"{""rt"": [9584, 10109, 6190], ""trial_type"": ""graph"", ""infoCost"": 0.05, ""minTime"": 45, ""actionTimes"": [9585, 25491, 37582], ""time_elapsed"": 735010, ""actions"": [""left"", ""left"", ""down""], ""trialIndex"": 6, ""score"": 1.61, ""internal_node_id"": ""0.0-1.0-5.0"", ""clickTimes"": [530, 1216, 1937, 2421, 3364, 3802, 4424, 5030, 6597, 7285], ""path"": [1, 4, 8, 15], ""trialID"": 17, ""clicks"": [""3"", ""2"", ""5"", ""4"", ""14"", ""15"", ""12"", ""13"", ""8"", ""7""], ""trial_index"": 13}"
A14NP6X071S7GK:3TY7ZAOG5FKC780FFZS9S1HSO8J0KE,14,1487899926645,"{""rt"": [26831, 1448, 380], ""trial_type"": ""graph"", ""infoCost"": 0.05, ""minTime"": 45, ""actionTimes"": [26831, 34472, 40758], ""time_elapsed"": 797818, ""actions"": [""down"", ""down"", ""right""], ""trialIndex"": 7, ""score"": 1.83, ""internal_node_id"": ""0.0-1.0-6.0"", ""clickTimes"": [730, 1080, 1957, 2314, 3193, 3667, 4274, 4892, 7390, 9819], ""path"": [1, 5, 9, 17], ""trialID"": 18, ""clicks"": [""3"", ""2"", ""4"", ""5"", ""10"", ""11"", ""17"", ""16"", ""9"", ""6""], ""trial_index"": 14}"
A14NP6X071S7GK:3TY7ZAOG5FKC780FFZS9S1HSO8J0KE,15,1487899990764,"{""rt"": [18466, 1055, 971], ""trial_type"": ""graph"", ""infoCost"": 0.05, ""minTime"": 45, ""actionTimes"": [18466, 25062, 31894], ""time_elapsed"": 861937, ""actions"": [""right"", ""right"", ""down""], ""trialIndex"": 8, ""score"": 1.55, ""internal_node_id"": ""0.0-1.0-7.0"", ""clickTimes"": [584, 984, 1404, 1922, 3075, 3563, 4410, 5026, 5961, 6345, 7666, 10114, 10902, 12141, 13044, 13883], ""path"": [1, 2, 6, 11], ""trialID"": 6, ""clicks"": [""3"", ""2"", ""5"", ""4"", ""16"", ""17"", ""14"", ""15"", ""12"", ""13"", ""7"", ""11"", ""10"", ""6"", ""9"", ""8""], ""trial_index"": 15}"
A14NP6X071S7GK:3TY7ZAOG5FKC780FFZS9S1HSO8J0KE,16,1487900055518,"{""rt"": [18422, 430, 344], ""trial_type"": ""graph"", ""infoCost"": 0.05, ""minTime"": 45, ""actionTimes"": [18422, 24469, 30702], ""time_elapsed"": 926691, ""actions"": [""up"", ""up"", ""left""], ""trialIndex"": 9, ""score"": 1.51, ""internal_node_id"": ""0.0-1.0-8.0"", ""clickTimes"": [4049, 4372, 4799, 5176, 6118, 6935, 7239, 8027, 8881, 9189, 11864, 12357, 13168, 13552, 14636], ""path"": [1, 3, 7, 12], ""trialID"": 4, ""clicks"": [""3"", ""2"", ""5"", ""4"", ""14"", ""15"", ""8"", ""16"", ""9"", ""17"", ""10"", ""11"", ""13"", ""12"", ""7""], ""trial_index"": 16}"
A14NP6X071S7GK:3TY7ZAOG5FKC780FFZS9S1HSO8J0KE,17,1487900119308,"{""rt"": [18449, 521, 691], ""trial_type"": ""graph"", ""infoCost"": 0.05, ""minTime"": 45, ""actionTimes"": [18449, 24498, 31021], ""time_elapsed"": 990481, ""actions"": [""down"", ""down"", ""right""], ""trialIndex"": 10, ""score"": 0.9, ""internal_node_id"": ""0.0-1.0-9.0"", ""clickTimes"": [2482, 3222, 3526, 4619, 5360, 5848, 6376, 6664, 7790, 8274, 8892, 9544, 10358, 10784, 11212, 11876], ""path"": [1, 5, 9, 17], ""trialID"": 1, ""clicks"": [""3"", ""5"", ""9"", ""7"", ""4"", ""8"", ""2"", ""6"", ""14"", ""15"", ""16"", ""17"", ""11"", ""10"", ""13"", ""12""], ""trial_index"": 17}"
A14NP6X071S7GK:3TY7ZAOG5FKC780FFZS9S1HSO8J0KE,18,1487900182822,"{""rt"": [18245, 421, 556], ""trial_type"": ""graph"", ""infoCost"": 0.05, ""minTime"": 45, ""actionTimes"": [18245, 24208, 30718], ""time_elapsed"": 1053995, ""actions"": [""down"", ""down"", ""right""], ""trialIndex"": 11, ""score"": 4.66, ""internal_node_id"": ""0.0-1.0-10.0"", ""clickTimes"": [4537, 5088, 5988, 7647, 8799, 9156, 9735, 10431, 10972, 11207, 11826, 12354, 13446, 13987, 15811, 17035], ""path"": [1, 5, 9, 17], ""trialID"": 19, ""clicks"": [""12"", ""7"", ""3"", ""13"", ""6"", ""2"", ""8"", ""4"", ""9"", ""5"", ""16"", ""17"", ""11"", ""10"", ""14"", ""15""], ""trial_index"": 18}"
A14NP6X071S7GK:3TY7ZAOG5FKC780FFZS9S1HSO8J0KE,19,1487900245610,"{""rt"": [18009, 2580, 419], ""trial_type"": ""graph"", ""infoCost"": 0.05, ""minTime"": 45, ""actionTimes"": [18009, 26114, 32385], ""time_elapsed"": 1116783, ""actions"": [""up"", ""up"", ""right""], ""trialIndex"": 12, ""score"": 1.17, ""internal_node_id"": ""0.0-1.0-11.0"", ""clickTimes"": [1170, 1474, 1867, 2485, 2836, 3464, 3947, 4265, 4736, 5242, 5557, 5882, 6242, 7010, 7368, 7773], ""path"": [1, 3, 7, 13], ""trialID"": 9, ""clicks"": [""12"", ""7"", ""13"", ""10"", ""6"", ""11"", ""17"", ""9"", ""16"", ""15"", ""8"", ""14"", ""4"", ""3"", ""2"", ""5""], ""trial_index"": 19}"
A14NP6X071S7GK:3TY7ZAOG5FKC780FFZS9S1HSO8J0KE,20,1487900308931,"{""rt"": [19802, 550, 329], ""trial_type"": ""graph"", ""infoCost"": 0.05, ""minTime"": 45, ""actionTimes"": [19802, 25873, 32038], ""time_elapsed"": 1180105, ""actions"": [""left"", ""left"", ""down""], ""trialIndex"": 13, ""score"": 1.47, ""internal_node_id"": ""0.0-1.0-12.0"", ""clickTimes"": [803, 1258, 1708, 2248, 4108, 4507, 4904, 6062, 6412, 6793, 7514, 7818, 8188, 8956, 9403, 9867], ""path"": [1, 4, 8, 15], ""trialID"": 11, ""clicks"": [""3"", ""4"", ""5"", ""2"", ""16"", ""9"", ""17"", ""15"", ""8"", ""14"", ""11"", ""6"", ""10"", ""7"", ""12"", ""13""], ""trial_index"": 20}"
A14NP6X071S7GK:3TY7ZAOG5FKC780FFZS9S1HSO8J0KE,21,1487900370835,"{""rt"": [21839, 397, 338], ""trial_type"": ""graph"", ""infoCost"": 0.05, ""minTime"": 45, ""actionTimes"": [21839, 27770, 34000], ""time_elapsed"": 1242008, ""actions"": [""left"", ""left"", ""down""], ""trialIndex"": 14, ""score"": 0.75, ""internal_node_id"": ""0.0-1.0-13.0"", ""clickTimes"": [1517, 1757, 2111, 2708, 3344, 3508, 3900, 4409, 5254, 5779, 6578, 7220, 8053, 8628, 9199, 9632], ""path"": [1, 4, 8, 15], ""trialID"": 15, ""clicks"": [""12"", ""7"", ""13"", ""3"", ""14"", ""8"", ""15"", ""4"", ""16"", ""9"", ""5"", ""17"", ""6"", ""2"", ""11"", ""10""], ""trial_index"": 21}"
A14NP6X071S7GK:3TY7ZAOG5FKC780FFZS9S1HSO8J0KE,22,1487900440270,"{""rt"": [20133, 448, 317], ""trial_type"": ""graph"", ""infoCost"": 0.05, ""minTime"": 45, ""actionTimes"": [20134, 26097, 32289], ""time_elapsed"": 1311444, ""actions"": [""down"", ""down"", ""right""], ""trialIndex"": 15, ""score"": 0.84, ""internal_node_id"": ""0.0-1.0-14.0"", ""clickTimes"": [1635, 2040, 2393, 2812, 3452, 3839, 4177, 4547, 5133, 5994, 6282, 6742, 7217, 7888, 8428, 8939], ""path"": [1, 5, 9, 17], ""trialID"": 12, ""clicks"": [""12"", ""7"", ""13"", ""3"", ""10"", ""6"", ""11"", ""2"", ""17"", ""9"", ""16"", ""5"", ""15"", ""8"", ""14"", ""4""], ""trial_index"": 22}"
A14NP6X071S7GK:3TY7ZAOG5FKC780FFZS9S1HSO8J0KE,23,1487900504865,"{""rt"": [13999, 1320, 1088], ""trial_type"": ""graph"", ""infoCost"": 0.05, ""minTime"": 45, ""actionTimes"": [13999, 20966, 27926], ""time_elapsed"": 1376039, ""actions"": [""up"", ""up"", ""left""], ""trialIndex"": 16, ""score"": 1.45, ""internal_node_id"": ""0.0-1.0-15.0"", ""clickTimes"": [1890, 2211, 2588, 3262, 3790, 4152, 4915, 5275, 5995, 6345, 6772, 7852, 8213, 8628], ""path"": [1, 3, 7, 12], ""trialID"": 5, ""clicks"": [""12"", ""7"", ""13"", ""3"", ""14"", ""8"", ""15"", ""4"", ""16"", ""9"", ""17"", ""5"", ""2"", ""6""], ""trial_index"": 23}"
A14NP6X071S7GK:3TY7ZAOG5FKC780FFZS9S1HSO8J0KE,24,1487900567389,"{""rt"": [28744, 310, 513], ""trial_type"": ""graph"", ""infoCost"": 0.05, ""minTime"": 45, ""actionTimes"": [28744, 34611, 40956], ""time_elapsed"": 1438562, ""actions"": [""left"", ""left"", ""down""], ""trialIndex"": 17, ""score"": 2.8, ""internal_node_id"": ""0.0-1.0-16.0"", ""clickTimes"": [1291, 1707, 2164, 2658, 3614, 3940, 4731, 5566, 6251, 6550, 6961, 7351, 8578, 9093, 9442, 9982], ""path"": [1, 4, 8, 15], ""trialID"": 14, ""clicks"": [""3"", ""7"", ""12"", ""13"", ""5"", ""9"", ""17"", ""16"", ""4"", ""8"", ""14"", ""15"", ""2"", ""6"", ""11"", ""10""], ""trial_index"": 24}"
A14NP6X071S7GK:3TY7ZAOG5FKC780FFZS9S1HSO8J0KE,25,1487900634362,"{""rt"": [16892, 390, 428], ""trial_type"": ""graph"", ""infoCost"": 0.05, ""minTime"": 45, ""actionTimes"": [16893, 22820, 29086], ""time_elapsed"": 1505536, ""actions"": [""up"", ""up"", ""left""], ""trialIndex"": 18, ""score"": 1.58, ""internal_node_id"": ""0.0-1.0-17.0"", ""clickTimes"": [1239, 1592, 2149, 2611, 3451, 3792, 4186, 4601, 5287, 5614, 6002, 6480, 7480, 7773, 8413, 8797], ""path"": [1, 3, 7, 12], ""trialID"": 0, ""clicks"": [""3"", ""7"", ""12"", ""13"", ""2"", ""6"", ""11"", ""10"", ""5"", ""9"", ""17"", ""16"", ""4"", ""8"", ""15"", ""14""], ""trial_index"": 25}"
A14NP6X071S7GK:3TY7ZAOG5FKC780FFZS9S1HSO8J0KE,26,1487900703574,"{""rt"": [23131, 1370, 292], ""trial_type"": ""graph"", ""infoCost"": 0.05, ""minTime"": 45, ""actionTimes"": [23131, 30044, 36167], ""time_elapsed"": 1574748, ""actions"": [""up"", ""up"", ""right""], ""trialIndex"": 19, ""score"": 0.73, ""internal_node_id"": ""0.0-1.0-18.0"", ""clickTimes"": [3016, 3392, 4061, 4533, 5477, 5736, 6097, 6898, 7549, 7822, 8231, 8797, 9507, 9787, 10923, 11316], ""path"": [1, 3, 7, 13], ""trialID"": 10, ""clicks"": [""3"", ""7"", ""12"", ""13"", ""2"", ""6"", ""11"", ""10"", ""5"", ""9"", ""17"", ""16"", ""4"", ""8"", ""15"", ""14""], ""trial_index"": 26}"
A14NP6X071S7GK:3TY7ZAOG5FKC780FFZS9S1HSO8J0KE,27,1487900767549,"{""rt"": [25886, 448, 442], ""trial_type"": ""graph"", ""infoCost"": 0.05, ""minTime"": 45, ""actionTimes"": [25887, 31868, 38169], ""time_elapsed"": 1638722, ""actions"": [""right"", ""right"", ""up""], ""trialIndex"": 20, ""score"": 0.86, ""internal_node_id"": ""0.0-1.0-19.0"", ""clickTimes"": [11024, 11730, 12195, 13129, 13634, 14088, 14264, 14689, 15397, 15712, 16071, 16920, 17885, 18221, 18834, 19559], ""path"": [1, 2, 6, 10], ""trialID"": 8, ""clicks"": [""3"", ""7"", ""12"", ""13"", ""2"", ""6"", ""10"", ""11"", ""5"", ""9"", ""17"", ""16"", ""4"", ""8"", ""15"", ""14""], ""trial_index"": 27}"
A14NP6X071S7GK:3TY7ZAOG5FKC780FFZS9S1HSO8J0KE,28,1487900773184,"{""rt"": 4603, ""trial_type"": ""button-response"", ""button_pressed"": 0, ""stimulus"": ""<h1 id=\""thiscompletesthehit\"">This completes the HIT</h1>\n\n<p>One or your profits was randomly selected as your bonus. You will be awarded a bonus of $1.17</p>"", ""internal_node_id"": ""0.0-2.0"", ""time_elapsed"": 1644358, ""trial_index"": 28}"
A15FXHC1CVNW31:3FIJLY1B6U44F3CLV9G2RPQVOKEFPY,0,1487898370323,"{""rt"": 62610, ""trial_type"": ""instructions"", ""view_history"": ""[{\""page_index\"":0,\""viewing_time\"":20622},{\""page_index\"":1,\""viewing_time\"":29848},{\""page_index\"":2,\""viewing_time\"":12139}]"", ""internal_node_id"": ""0.0-0.0-0.0"", ""time_elapsed"": 62611, ""trial_index"": 0}"
A15FXHC1CVNW31:3FIJLY1B6U44F3CLV9G2RPQVOKEFPY,1,1487898408251,"{""rt"": 34523, ""trial_type"": ""survey-multi-choice"", ""responses"": ""[\""1\"",\""True\"",\""$0.05\"",\""As many or as few as I wish\"",\""My earnings for each round are equal to the value of one of the locations I visit (minus the cost of making observations), and I will actually be paid the earnings from one of the 20 rounds.\""]"", ""internal_node_id"": ""0.0-0.0-1.0"", ""time_elapsed"": 100540, ""questions"": ""[\""How many flights are there per round?\"",\""True or false: The hidden values will change each time I start a new round.\"",\""How much does it cost to observe each hidden value?\"",\""How many hidden values am I allowed to observe in each round?\"",\""Which statement is TRUE?\""]"", ""correct"": [false, true, true, true, false], ""trial_index"": 1}"
A15FXHC1CVNW31:3FIJLY1B6U44F3CLV9G2RPQVOKEFPY,2,1487898447954,"{""rt"": 38701, ""trial_type"": ""instructions"", ""view_history"": ""[{\""page_index\"":0,\""viewing_time\"":15626},{\""page_index\"":1,\""viewing_time\"":11442},{\""page_index\"":2,\""viewing_time\"":11633}]"", ""internal_node_id"": ""0.0-0.1-0.1"", ""time_elapsed"": 140242, ""trial_index"": 2}"
A15FXHC1CVNW31:3FIJLY1B6U44F3CLV9G2RPQVOKEFPY,3,1487898473893,"{""rt"": 21440, ""trial_type"": ""survey-multi-choice"", ""responses"": ""[\""4\"",\""True\"",\""$0.05\"",\""As many or as few as I wish\"",\""My earnings for each round are equal to the value of one of the locations I visit (minus the cost of making observations), and I will actually be paid the earnings from one of the 20 rounds.\""]"", ""internal_node_id"": ""0.0-0.1-1.1"", ""time_elapsed"": 166182, ""questions"": ""[\""How many flights are there per round?\"",\""True or false: The hidden values will change each time I start a new round.\"",\""How much does it cost to observe each hidden value?\"",\""How many hidden values am I allowed to observe in each round?\"",\""Which statement is TRUE?\""]"", ""correct"": [false, true, true, true, false], ""trial_index"": 3}"
A15FXHC1CVNW31:3FIJLY1B6U44F3CLV9G2RPQVOKEFPY,4,1487898624890,"{""rt"": 149996, ""trial_type"": ""instructions"", ""view_history"": ""[{\""page_index\"":0,\""viewing_time\"":23725},{\""page_index\"":1,\""viewing_time\"":22905},{\""page_index\"":2,\""viewing_time\"":8008},{\""page_index\"":1,\""viewing_time\"":33431},{\""page_index\"":0,\""viewing_time\"":32170},{\""page_index\"":1,\""viewing_time\"":18100},{\""page_index\"":2,\""viewing_time\"":11657}]"", ""internal_node_id"": ""0.0-0.2-0.2"", ""time_elapsed"": 317179, ""trial_index"": 4}"
A15FXHC1CVNW31:3FIJLY1B6U44F3CLV9G2RPQVOKEFPY,5,1487898654649,"{""rt"": 23290, ""trial_type"": ""survey-multi-choice"", ""responses"": ""[\""1\"",\""True\"",\""$0.05\"",\""As many or as few as I wish\"",\""My earnings for each round are equal to the <i>sum</i> of the values of all locations I visit (minus the cost of making observations), and I will be paid the earnings from one of the 20 rounds.\""]"", ""internal_node_id"": ""0.0-0.2-1.2"", ""time_elapsed"": 346938, ""questions"": ""[\""How many flights are there per round?\"",\""True or false: The hidden values will change each time I start a new round.\"",\""How much does it cost to observe each hidden value?\"",\""How many hidden values am I allowed to observe in each round?\"",\""Which statement is TRUE?\""]"", ""correct"": [false, true, true, true, true], ""trial_index"": 5}"
A15FXHC1CVNW31:3FIJLY1B6U44F3CLV9G2RPQVOKEFPY,6,1487898681228,"{""rt"": 25578, ""trial_type"": ""instructions"", ""view_history"": ""[{\""page_index\"":0,\""viewing_time\"":16730},{\""page_index\"":1,\""viewing_time\"":6933},{\""page_index\"":2,\""viewing_time\"":1914}]"", ""internal_node_id"": ""0.0-0.3-0.3"", ""time_elapsed"": 373516, ""trial_index"": 6}"
A15FXHC1CVNW31:3FIJLY1B6U44F3CLV9G2RPQVOKEFPY,7,1487898702369,"{""rt"": 20125, ""trial_type"": ""survey-multi-choice"", ""responses"": ""[\""3\"",\""True\"",\""$0.05\"",\""As many or as few as I wish\"",\""My earnings for each round are equal to the <i>sum</i> of the values of all locations I visit (minus the cost of making observations), and I will be paid the earnings from one of the 20 rounds.\""]"", ""internal_node_id"": ""0.0-0.3-1.3"", ""time_elapsed"": 394658, ""questions"": ""[\""How many flights are there per round?\"",\""True or false: The hidden values will change each time I start a new round.\"",\""How much does it cost to observe each hidden value?\"",\""How many hidden values am I allowed to observe in each round?\"",\""Which statement is TRUE?\""]"", ""correct"": [true, true, true, true, true], ""trial_index"": 7}"
A15FXHC1CVNW31:3FIJLY1B6U44F3CLV9G2RPQVOKEFPY,8,1487898775497,"{""rt"": [26725, 533, 541], ""trial_type"": ""graph"", ""infoCost"": 0.05, ""minTime"": 45, ""actionTimes"": [26725, 32934, 39525], ""time_elapsed"": 467786, ""actions"": [""left"", ""left"", ""down""], ""trialIndex"": 1, ""score"": 1.56, ""internal_node_id"": ""0.0-1.0-0.0"", ""clickTimes"": [3470, 5203, 6337, 7835, 9259, 10676, 12796, 15075, 16209, 19297, 20299, 21623, 25144], ""path"": [1, 4, 8, 15], ""trialID"": 2, ""clicks"": [""10"", ""14"", ""12"", ""17"", ""16"", ""11"", ""13"", ""3"", ""7"", ""8"", ""15"", ""4"", ""5""], ""trial_index"": 8}"
A15FXHC1CVNW31:3FIJLY1B6U44F3CLV9G2RPQVOKEFPY,9,1487898841209,"{""rt"": [22967, 2367, 404], ""trial_type"": ""graph"", ""infoCost"": 0.05, ""minTime"": 45, ""actionTimes"": [22968, 30947, 37282], ""time_elapsed"": 533497, ""actions"": [""right"", ""right"", ""up""], ""trialIndex"": 2, ""score"": 0.86, ""internal_node_id"": ""0.0-1.0-1.0"", ""clickTimes"": [2341, 3428, 4460, 5626, 6161, 7453, 7997, 9517, 11031, 11976, 12750, 13522, 14696, 15696, 16769, 29387], ""path"": [1, 2, 6, 10], ""trialID"": 8, ""clicks"": [""10"", ""6"", ""2"", ""9"", ""17"", ""5"", ""16"", ""8"", ""7"", ""13"", ""12"", ""3"", ""15"", ""14"", ""4"", ""11""], ""trial_index"": 9}"
A15FXHC1CVNW31:3FIJLY1B6U44F3CLV9G2RPQVOKEFPY,10,1487898907209,"{""rt"": [14957, 369, 661], ""trial_type"": ""graph"", ""infoCost"": 0.05, ""minTime"": 45, ""actionTimes"": [14957, 21309, 28069], ""time_elapsed"": 599498, ""actions"": [""left"", ""left"", ""down""], ""trialIndex"": 3, ""score"": 1.31, ""internal_node_id"": ""0.0-1.0-2.0"", ""clickTimes"": [3202, 3777, 4831, 6487, 7541, 8603, 10095, 10834, 11534], ""path"": [1, 4, 8, 15], ""trialID"": 5, ""clicks"": [""6"", ""11"", ""9"", ""17"", ""16"", ""8"", ""4"", ""15"", ""14""], ""trial_index"": 10}"
A15FXHC1CVNW31:3FIJLY1B6U44F3CLV9G2RPQVOKEFPY,11,1487898973513,"{""rt"": [29519, 1173, 490], ""trial_type"": ""graph"", ""infoCost"": 0.05, ""minTime"": 45, ""actionTimes"": [29520, 36502, 43000], ""time_elapsed"": 665802, ""actions"": [""up"", ""up"", ""left""], ""trialIndex"": 4, ""score"": 1.92, ""internal_node_id"": ""0.0-1.0-3.0"", ""clickTimes"": [1402, 2449, 3276, 4206, 4962, 5814, 6326, 9808, 11682, 26950], ""path"": [1, 3, 7, 12], ""trialID"": 11, ""clicks"": [""8"", ""6"", ""9"", ""7"", ""12"", ""13"", ""3"", ""4"", ""15"", ""14""], ""trial_index"": 11}"
A15FXHC1CVNW31:3FIJLY1B6U44F3CLV9G2RPQVOKEFPY,12,1487899047833,"{""rt"": [15426, 432, 473], ""trial_type"": ""graph"", ""infoCost"": 0.05, ""minTime"": 45, ""actionTimes"": [15427, 21659, 28196], ""time_elapsed"": 740122, ""actions"": [""right"", ""right"", ""down""], ""trialIndex"": 5, ""score"": 2.28, ""internal_node_id"": ""0.0-1.0-4.0"", ""clickTimes"": [5020, 6643, 7997, 8857, 9510, 10573, 11455, 12333, 13055, 13677], ""path"": [1, 2, 6, 11], ""trialID"": 17, ""clicks"": [""7"", ""9"", ""17"", ""5"", ""16"", ""8"", ""6"", ""2"", ""10"", ""11""], ""trial_index"": 12}"
A15FXHC1CVNW31:3FIJLY1B6U44F3CLV9G2RPQVOKEFPY,13,1487899115184,"{""rt"": [14786, 1155, 1588], ""trial_type"": ""graph"", ""infoCost"": 0.05, ""minTime"": 45, ""actionTimes"": [14787, 21852, 29491], ""time_elapsed"": 807473, ""actions"": [""down"", ""down"", ""right""], ""trialIndex"": 6, ""score"": 2.26, ""internal_node_id"": ""0.0-1.0-5.0"", ""clickTimes"": [1869, 2964, 4839, 5649, 6721, 7683, 8345, 9455, 10455, 11085, 13269, 36976, 39121], ""path"": [1, 5, 9, 17], ""trialID"": 7, ""clicks"": [""6"", ""9"", ""8"", ""7"", ""13"", ""12"", ""3"", ""17"", ""5"", ""16"", ""2"", ""11"", ""10""], ""trial_index"": 13}"
A15FXHC1CVNW31:3FIJLY1B6U44F3CLV9G2RPQVOKEFPY,14,1487899178889,"{""rt"": [24221, 195, 333], ""trial_type"": ""graph"", ""infoCost"": 0.05, ""minTime"": 45, ""actionTimes"": [24221, 29916, 36244], ""time_elapsed"": 871177, ""actions"": [""left"", ""left"", ""down""], ""trialIndex"": 7, ""score"": 1.27, ""internal_node_id"": ""0.0-1.0-6.0"", ""clickTimes"": [1525, 2525, 3747, 4678, 5316, 6182, 7396, 7954, 8450, 9059, 13358, 14044, 14744, 21195, 22031, 22828], ""path"": [1, 4, 8, 15], ""trialID"": 4, ""clicks"": [""2"", ""4"", ""8"", ""15"", ""14"", ""3"", ""5"", ""9"", ""17"", ""16"", ""7"", ""13"", ""12"", ""6"", ""11"", ""10""], ""trial_index"": 14}"
A15FXHC1CVNW31:3FIJLY1B6U44F3CLV9G2RPQVOKEFPY,15,1487899242392,"{""rt"": [18247, 671, 421], ""trial_type"": ""graph"", ""infoCost"": 0.05, ""minTime"": 45, ""actionTimes"": [18247, 24423, 30800], ""time_elapsed"": 934681, ""actions"": [""down"", ""down"", ""right""], ""trialIndex"": 8, ""score"": 0.84, ""internal_node_id"": ""0.0-1.0-7.0"", ""clickTimes"": [1151, 3135, 3987, 5451, 6010, 7608, 8391, 9019, 9760, 10420, 11380, 11981, 13069, 13667, 14353, 15211], ""path"": [1, 5, 9, 17], ""trialID"": 12, ""clicks"": [""2"", ""5"", ""4"", ""8"", ""15"", ""14"", ""3"", ""7"", ""13"", ""12"", ""6"", ""10"", ""9"", ""17"", ""16"", ""11""], ""trial_index"": 15}"
A15FXHC1CVNW31:3FIJLY1B6U44F3CLV9G2RPQVOKEFPY,16,1487899306904,"{""rt"": [18621, 362, 513], ""trial_type"": ""graph"", ""infoCost"": 0.05, ""minTime"": 45, ""actionTimes"": [18622, 24734, 31261], ""time_elapsed"": 999193, ""actions"": [""left"", ""left"", ""down""], ""trialIndex"": 9, ""score"": 0.85, ""internal_node_id"": ""0.0-1.0-8.0"", ""clickTimes"": [828, 1679, 2655, 3586, 4451, 5097, 6039, 7649, 8303, 8863, 9713, 11044, 11903, 12723], ""path"": [1, 4, 8, 15], ""trialID"": 15, ""clicks"": [""6"", ""9"", ""8"", ""7"", ""15"", ""14"", ""4"", ""17"", ""16"", ""5"", ""11"", ""2"", ""3"", ""13""], ""trial_index"": 16}"
A15FXHC1CVNW31:3FIJLY1B6U44F3CLV9G2RPQVOKEFPY,17,1487899377153,"{""rt"": [22675, 775, 274], ""trial_type"": ""graph"", ""infoCost"": 0.05, ""minTime"": 45, ""actionTimes"": [22675, 29018, 35298], ""time_elapsed"": 1069441, ""actions"": [""left"", ""left"", ""down""], ""trialIndex"": 10, ""score"": 1.09, ""internal_node_id"": ""0.0-1.0-9.0"", ""clickTimes"": [552, 1275, 1898, 2709, 5672, 6625, 7366, 8342, 9318, 10208, 10942, 12776, 13572, 14400, 17228], ""path"": [1, 4, 8, 15], ""trialID"": 16, ""clicks"": [""2"", ""6"", ""11"", ""10"", ""9"", ""17"", ""16"", ""8"", ""4"", ""14"", ""15"", ""7"", ""13"", ""3"", ""12""], ""trial_index"": 17}"
A15FXHC1CVNW31:3FIJLY1B6U44F3CLV9G2RPQVOKEFPY,18,1487899441177,"{""rt"": [22685, 331, 378], ""trial_type"": ""graph"", ""infoCost"": 0.05, ""minTime"": 45, ""actionTimes"": [22685, 28652, 35036], ""time_elapsed"": 1133466, ""actions"": [""up"", ""up"", ""right""], ""trialIndex"": 11, ""score"": 0.83, ""internal_node_id"": ""0.0-1.0-10.0"", ""clickTimes"": [378, 1316, 2836, 3647, 4387, 4956, 6176, 6566, 9218, 9982, 11250, 11982, 13778, 14424], ""path"": [1, 3, 7, 13], ""trialID"": 10, ""clicks"": [""2"", ""6"", ""9"", ""5"", ""4"", ""8"", ""7"", ""3"", ""11"", ""10"", ""12"", ""13"", ""17"", ""16""], ""trial_index"": 18}"
A15FXHC1CVNW31:3FIJLY1B6U44F3CLV9G2RPQVOKEFPY,19,1487899513945,"{""rt"": [15983, 311, 470], ""trial_type"": ""graph"", ""infoCost"": 0.05, ""minTime"": 45, ""actionTimes"": [15984, 21952, 28480], ""time_elapsed"": 1206234, ""actions"": [""right"", ""right"", ""down""], ""trialIndex"": 12, ""score"": 1.7, ""internal_node_id"": ""0.0-1.0-11.0"", ""clickTimes"": [506, 1375, 2439, 3069, 4265, 5465, 6251, 6856, 7559, 8330, 9741, 10347, 11237], ""path"": [1, 2, 6, 11], ""trialID"": 6, ""clicks"": [""2"", ""4"", ""8"", ""15"", ""14"", ""3"", ""7"", ""13"", ""12"", ""9"", ""6"", ""11"", ""10""], ""trial_index"": 19}"
A15FXHC1CVNW31:3FIJLY1B6U44F3CLV9G2RPQVOKEFPY,20,1487899599569,"{""rt"": [57923, 407, 522], ""trial_type"": ""graph"", ""infoCost"": 0.05, ""minTime"": 45, ""actionTimes"": [57923, 63843, 70322], ""time_elapsed"": 1291857, ""actions"": [""down"", ""down"", ""right""], ""trialIndex"": 13, ""score"": 0.9, ""internal_node_id"": ""0.0-1.0-12.0"", ""clickTimes"": [40453, 41719, 42381, 43210, 44186, 44872, 45368, 45966, 46714, 47699, 48244, 48898, 50149, 50568, 51276, 51860], ""path"": [1, 5, 9, 17], ""trialID"": 1, ""clicks"": [""2"", ""6"", ""11"", ""10"", ""4"", ""8"", ""15"", ""14"", ""3"", ""7"", ""13"", ""12"", ""9"", ""5"", ""16"", ""17""], ""trial_index"": 20}"
A15FXHC1CVNW31:3FIJLY1B6U44F3CLV9G2RPQVOKEFPY,21,1487899662524,"{""rt"": [28286, 482, 405], ""trial_type"": ""graph"", ""infoCost"": 0.05, ""minTime"": 45, ""actionTimes"": [28286, 34518, 40949], ""time_elapsed"": 1354813, ""actions"": [""up"", ""up"", ""right""], ""trialIndex"": 14, ""score"": 1.27, ""internal_node_id"": ""0.0-1.0-13.0"", ""clickTimes"": [3735, 5225, 5989, 6753, 8280, 9471, 10707, 11444, 12961, 15183, 17025, 19633, 20807, 21485], ""path"": [1, 3, 7, 13], ""trialID"": 9, ""clicks"": [""6"", ""8"", ""7"", ""9"", ""13"", ""3"", ""2"", ""10"", ""12"", ""4"", ""14"", ""5"", ""16"", ""17""], ""trial_index"": 21}"
A15FXHC1CVNW31:3FIJLY1B6U44F3CLV9G2RPQVOKEFPY,22,1487899727104,"{""rt"": [30078, 1111, 1885], ""trial_type"": ""graph"", ""infoCost"": 0.05, ""minTime"": 45, ""actionTimes"": [30078, 36855, 44743], ""time_elapsed"": 1419393, ""actions"": [""left"", ""left"", ""up""], ""trialIndex"": 15, ""score"": 1.42, ""internal_node_id"": ""0.0-1.0-14.0"", ""clickTimes"": [5490, 6396, 7372, 8114, 9034, 9586, 10366, 13022, 14407, 15251, 17322, 18228, 19088], ""path"": [1, 4, 8, 14], ""trialID"": 13, ""clicks"": [""6"", ""9"", ""8"", ""7"", ""10"", ""11"", ""2"", ""4"", ""15"", ""14"", ""5"", ""17"", ""16""], ""trial_index"": 22}"
A15FXHC1CVNW31:3FIJLY1B6U44F3CLV9G2RPQVOKEFPY,23,1487899809570,"{""rt"": [12657, 399, 527], ""trial_type"": ""graph"", ""infoCost"": 0.05, ""minTime"": 45, ""actionTimes"": [12657, 18857, 25546], ""time_elapsed"": 1501858, ""actions"": [""up"", ""up"", ""left""], ""trialIndex"": 16, ""score"": 3.19, ""internal_node_id"": ""0.0-1.0-15.0"", ""clickTimes"": [831, 1847, 2720, 3420, 4729, 5501, 6265, 9583, 10694, 11449], ""path"": [1, 3, 7, 12], ""trialID"": 3, ""clicks"": [""6"", ""8"", ""7"", ""9"", ""5"", ""17"", ""16"", ""3"", ""13"", ""12""], ""trial_index"": 23}"
A15FXHC1CVNW31:3FIJLY1B6U44F3CLV9G2RPQVOKEFPY,24,1487899887145,"{""rt"": [13159, 883, 396], ""trial_type"": ""graph"", ""infoCost"": 0.05, ""minTime"": 45, ""actionTimes"": [13160, 19999, 26447], ""time_elapsed"": 1579433, ""actions"": [""left"", ""left"", ""down""], ""trialIndex"": 17, ""score"": 3.05, ""internal_node_id"": ""0.0-1.0-16.0"", ""clickTimes"": [401, 1079, 2189, 2693, 4323, 5106, 5781, 6655, 7127, 8008, 19453], ""path"": [1, 4, 8, 15], ""trialID"": 14, ""clicks"": [""3"", ""2"", ""6"", ""11"", ""10"", ""5"", ""9"", ""4"", ""8"", ""15"", ""14""], ""trial_index"": 24}"
A15FXHC1CVNW31:3FIJLY1B6U44F3CLV9G2RPQVOKEFPY,25,1487899958928,"{""rt"": [15184, 1306, 2076], ""trial_type"": ""graph"", ""infoCost"": 0.05, ""minTime"": 45, ""actionTimes"": [15184, 21985, 30032], ""time_elapsed"": 1651217, ""actions"": [""down"", ""down"", ""right""], ""trialIndex"": 18, ""score"": 1.53, ""internal_node_id"": ""0.0-1.0-17.0"", ""clickTimes"": [545, 1116, 1753, 2614, 3432, 4440, 5378, 6244, 6866, 7459, 8395, 9632, 10590, 11302, 12452, 13098], ""path"": [1, 5, 9, 17], ""trialID"": 18, ""clicks"": [""4"", ""2"", ""5"", ""3"", ""11"", ""6"", ""8"", ""7"", ""13"", ""12"", ""10"", ""9"", ""17"", ""16"", ""15"", ""14""], ""trial_index"": 25}"
A15FXHC1CVNW31:3FIJLY1B6U44F3CLV9G2RPQVOKEFPY,26,1487900048169,"{""rt"": [38532, 11649, 2393], ""trial_type"": ""graph"", ""infoCost"": 0.05, ""minTime"": 45, ""actionTimes"": [38533, 55685, 64028], ""time_elapsed"": 1740458, ""actions"": [""left"", ""left"", ""up""], ""trialIndex"": 19, ""score"": 1.25, ""internal_node_id"": ""0.0-1.0-18.0"", ""clickTimes"": [19401, 21024, 21741, 23222, 23962, 24962, 25852, 26586, 27428, 28154, 29146, 29682, 30288, 31320, 32092, 32667], ""path"": [1, 4, 8, 14], ""trialID"": 0, ""clicks"": [""2"", ""5"", ""4"", ""8"", ""15"", ""14"", ""6"", ""10"", ""11"", ""3"", ""13"", ""7"", ""12"", ""9"", ""16"", ""17""], ""trial_index"": 26}"
A15FXHC1CVNW31:3FIJLY1B6U44F3CLV9G2RPQVOKEFPY,27,1487900132224,"{""rt"": [61798, 860, 409], ""trial_type"": ""graph"", ""infoCost"": 0.05, ""minTime"": 45, ""actionTimes"": [61799, 68495, 74887], ""time_elapsed"": 1824513, ""actions"": [""down"", ""down"", ""right""], ""trialIndex"": 20, ""score"": 4.81, ""internal_node_id"": ""0.0-1.0-19.0"", ""clickTimes"": [51751, 52318, 53248, 53822, 54680, 55248, 55800, 56618, 57138, 58030, 59062, 59912, 68042], ""path"": [1, 5, 9, 17], ""trialID"": 19, ""clicks"": [""4"", ""2"", ""5"", ""3"", ""8"", ""14"", ""15"", ""6"", ""10"", ""11"", ""9"", ""17"", ""16""], ""trial_index"": 27}"
