,correct,questions,responses,rt,time_elapsed,trial_type,worker_id,assignment_id,pid
1,"[False, False, True, False, False, True]","[""How many flights are there per round?"",""True or false: The hidden values will change each time I start a new round."",""How much does it cost to observe each hidden value?"",""How many hidden values am I allowed to observe in each round?"",""How is your bonus determined?"",""What does the feedback teach you?""]","[""1"",""False"",""$2.80"",""At most 1"",""10% of my best score on any round"",""All of the above.""]",73154,326318,survey-multi-choice,A105Q9KX0PVR4N,3KGTPGBS6XLX6E85O00PHCJ6QX42U5,0
3,"[False, False, True, True, True, True]","[""How many flights are there per round?"",""True or false: The hidden values will change each time I start a new round."",""How much does it cost to observe each hidden value?"",""How many hidden values am I allowed to observe in each round?"",""How is your bonus determined?"",""What does the feedback teach you?""]","[""1"",""False"",""$2.80"",""As many or as few as I wish"",""5% of my score on a random round"",""All of the above.""]",28329,442459,survey-multi-choice,A105Q9KX0PVR4N,3KGTPGBS6XLX6E85O00PHCJ6QX42U5,0
5,"[True, False, True, True, True, True]","[""How many flights are there per round?"",""True or false: The hidden values will change each time I start a new round."",""How much does it cost to observe each hidden value?"",""How many hidden values am I allowed to observe in each round?"",""How is your bonus determined?"",""What does the feedback teach you?""]","[""3"",""False"",""$2.80"",""As many or as few as I wish"",""5% of my score on a random round"",""All of the above.""]",16170,497307,survey-multi-choice,A105Q9KX0PVR4N,3KGTPGBS6XLX6E85O00PHCJ6QX42U5,0
7,"[True, True, True, True, True, True]","[""How many flights are there per round?"",""True or false: The hidden values will change each time I start a new round."",""How much does it cost to observe each hidden value?"",""How many hidden values am I allowed to observe in each round?"",""How is your bonus determined?"",""What does the feedback teach you?""]","[""3"",""True"",""$2.80"",""As many or as few as I wish"",""5% of my score on a random round"",""All of the above.""]",15555,569359,survey-multi-choice,A105Q9KX0PVR4N,3KGTPGBS6XLX6E85O00PHCJ6QX42U5,0
18,"[False, True, True, True, True, True]","[""How many flights are there per round?"",""True or false: The hidden values will change each time I start a new round."",""How much does it cost to observe each hidden value?"",""How many hidden values am I allowed to observe in each round?"",""How is your bonus determined?"",""What does the feedback teach you?""]","[""1"",""True"",""$1.60"",""As many or as few as I wish"",""5% of my score on a random round"",""All of the above.""]",32477,98415,survey-multi-choice,A10XW6SNPNQX16,3TYCR1GOTCJKTZON4TH2D0XUYF8ZLE,1
20,"[False, True, True, True, True, True]","[""How many flights are there per round?"",""True or false: The hidden values will change each time I start a new round."",""How much does it cost to observe each hidden value?"",""How many hidden values am I allowed to observe in each round?"",""How is your bonus determined?"",""What does the feedback teach you?""]","[""2"",""True"",""$1.60"",""As many or as few as I wish"",""5% of my score on a random round"",""All of the above.""]",10365,172161,survey-multi-choice,A10XW6SNPNQX16,3TYCR1GOTCJKTZON4TH2D0XUYF8ZLE,1
22,"[False, True, True, True, True, False]","[""How many flights are there per round?"",""True or false: The hidden values will change each time I start a new round."",""How much does it cost to observe each hidden value?"",""How many hidden values am I allowed to observe in each round?"",""How is your bonus determined?"",""What does the feedback teach you?""]","[""2"",""True"",""$1.60"",""As many or as few as I wish"",""5% of my score on a random round"",""The length of the day is based on how much more money I could have earned by planning and deciding better.""]",22297,203708,survey-multi-choice,A10XW6SNPNQX16,3TYCR1GOTCJKTZON4TH2D0XUYF8ZLE,1
24,"[False, False, True, True, True, True]","[""How many flights are there per round?"",""True or false: The hidden values will change each time I start a new round."",""How much does it cost to observe each hidden value?"",""How many hidden values am I allowed to observe in each round?"",""How is your bonus determined?"",""What does the feedback teach you?""]","[""2"",""False"",""$1.60"",""As many or as few as I wish"",""5% of my score on a random round"",""All of the above.""]",18498,255756,survey-multi-choice,A10XW6SNPNQX16,3TYCR1GOTCJKTZON4TH2D0XUYF8ZLE,1
26,"[False, True, True, True, True, False]","[""How many flights are there per round?"",""True or false: The hidden values will change each time I start a new round."",""How much does it cost to observe each hidden value?"",""How many hidden values am I allowed to observe in each round?"",""How is your bonus determined?"",""What does the feedback teach you?""]","[""2"",""True"",""$1.60"",""As many or as few as I wish"",""5% of my score on a random round"",""Whether I chose the move that was best according to the information I had.""]",15038,297751,survey-multi-choice,A10XW6SNPNQX16,3TYCR1GOTCJKTZON4TH2D0XUYF8ZLE,1
28,"[False, True, True, True, True, False]","[""How many flights are there per round?"",""True or false: The hidden values will change each time I start a new round."",""How much does it cost to observe each hidden value?"",""How many hidden values am I allowed to observe in each round?"",""How is your bonus determined?"",""What does the feedback teach you?""]","[""2"",""True"",""$1.60"",""As many or as few as I wish"",""5% of my score on a random round"",""The length of the day is based on how much more money I could have earned by planning and deciding better.""]",12271,326516,survey-multi-choice,A10XW6SNPNQX16,3TYCR1GOTCJKTZON4TH2D0XUYF8ZLE,1
30,"[False, True, True, True, True, False]","[""How many flights are there per round?"",""True or false: The hidden values will change each time I start a new round."",""How much does it cost to observe each hidden value?"",""How many hidden values am I allowed to observe in each round?"",""How is your bonus determined?"",""What does the feedback teach you?""]","[""2"",""True"",""$1.60"",""As many or as few as I wish"",""5% of my score on a random round"",""Whether I observed the rewards of relevant locations.""]",24085,379115,survey-multi-choice,A10XW6SNPNQX16,3TYCR1GOTCJKTZON4TH2D0XUYF8ZLE,1
32,"[True, True, True, True, True, True]","[""How many flights are there per round?"",""True or false: The hidden values will change each time I start a new round."",""How much does it cost to observe each hidden value?"",""How many hidden values am I allowed to observe in each round?"",""How is your bonus determined?"",""What does the feedback teach you?""]","[""3"",""True"",""$1.60"",""As many or as few as I wish"",""5% of my score on a random round"",""All of the above.""]",10259,443122,survey-multi-choice,A10XW6SNPNQX16,3TYCR1GOTCJKTZON4TH2D0XUYF8ZLE,1
43,"[False, True, True, True, True, False]","[""How many flights are there per round?"",""True or false: The hidden values will change each time I start a new round."",""How much does it cost to observe each hidden value?"",""How many hidden values am I allowed to observe in each round?"",""How is your bonus determined?"",""What does the feedback teach you?""]","[""1"",""True"",""$0.01"",""As many or as few as I wish"",""5% of my score on a random round"",""Whether I chose the move that was best according to the information I had.""]",75903,273876,survey-multi-choice,A125KW9P18V5Z1,338JKRMM26ZH6VXP1GM54FDE8DVAHK,2
45,"[True, True, True, True, True, False]","[""How many flights are there per round?"",""True or false: The hidden values will change each time I start a new round."",""How much does it cost to observe each hidden value?"",""How many hidden values am I allowed to observe in each round?"",""How is your bonus determined?"",""What does the feedback teach you?""]","[""3"",""True"",""$0.01"",""As many or as few as I wish"",""5% of my score on a random round"",""Whether I chose the move that was best according to the information I had.""]",44978,449412,survey-multi-choice,A125KW9P18V5Z1,338JKRMM26ZH6VXP1GM54FDE8DVAHK,2
47,"[True, True, True, True, True, True]","[""How many flights are there per round?"",""True or false: The hidden values will change each time I start a new round."",""How much does it cost to observe each hidden value?"",""How many hidden values am I allowed to observe in each round?"",""How is your bonus determined?"",""What does the feedback teach you?""]","[""3"",""True"",""$0.01"",""As many or as few as I wish"",""5% of my score on a random round"",""All of the above.""]",14560,471213,survey-multi-choice,A125KW9P18V5Z1,338JKRMM26ZH6VXP1GM54FDE8DVAHK,2
58,"[True, True, True, True, True]","[""How many flights are there per round?"",""True or false: The hidden values will change each time I start a new round."",""How much does it cost to observe each hidden value?"",""How many hidden values am I allowed to observe in each round?"",""How is your bonus determined?""]","[""3"",""True"",""$1.60"",""As many or as few as I wish"",""5% of my score on a random round""]",14394,40529,survey-multi-choice,A1295RHU5X5GTX,3PMBY0YE273CK4C4NIU4XT5EP36C9W,3
69,"[False, True, True, True, True, False]","[""How many flights are there per round?"",""True or false: The hidden values will change each time I start a new round."",""How much does it cost to observe each hidden value?"",""How many hidden values am I allowed to observe in each round?"",""How is your bonus determined?"",""What does the feedback teach you?""]","[""1"",""True"",""$2.80"",""As many or as few as I wish"",""5% of my score on a random round"",""Whether I observed the rewards of relevant locations.""]",62247,258938,survey-multi-choice,A12HZGOZQD5YK7,3IX2EGZR7BJ5WIEWRRBCBII3L9MRJD,4
71,"[False, True, True, True, True, True]","[""How many flights are there per round?"",""True or false: The hidden values will change each time I start a new round."",""How much does it cost to observe each hidden value?"",""How many hidden values am I allowed to observe in each round?"",""How is your bonus determined?"",""What does the feedback teach you?""]","[""1"",""True"",""$2.80"",""As many or as few as I wish"",""5% of my score on a random round"",""All of the above.""]",19897,380277,survey-multi-choice,A12HZGOZQD5YK7,3IX2EGZR7BJ5WIEWRRBCBII3L9MRJD,4
73,"[True, True, True, True, True, True]","[""How many flights are there per round?"",""True or false: The hidden values will change each time I start a new round."",""How much does it cost to observe each hidden value?"",""How many hidden values am I allowed to observe in each round?"",""How is your bonus determined?"",""What does the feedback teach you?""]","[""3"",""True"",""$2.80"",""As many or as few as I wish"",""5% of my score on a random round"",""All of the above.""]",63953,677227,survey-multi-choice,A12HZGOZQD5YK7,3IX2EGZR7BJ5WIEWRRBCBII3L9MRJD,4
84,"[False, True, True, True, True, True]","[""How many flights are there per round?"",""True or false: The hidden values will change each time I start a new round."",""How much does it cost to observe each hidden value?"",""How many hidden values am I allowed to observe in each round?"",""How is your bonus determined?"",""What does the feedback teach you?""]","[""1"",""True"",""$1.60"",""As many or as few as I wish"",""5% of my score on a random round"",""All of the above.""]",79158,155128,survey-multi-choice,A12VQHPT0YHMIS,3M81GAB8A0JZ2Y1KQK9V84PLHIABQA,5
86,"[False, True, True, True, True, False]","[""How many flights are there per round?"",""True or false: The hidden values will change each time I start a new round."",""How much does it cost to observe each hidden value?"",""How many hidden values am I allowed to observe in each round?"",""How is your bonus determined?"",""What does the feedback teach you?""]","[""1"",""True"",""$1.60"",""As many or as few as I wish"",""5% of my score on a random round"",""Whether I chose the move that was best according to the information I had.""]",46746,271707,survey-multi-choice,A12VQHPT0YHMIS,3M81GAB8A0JZ2Y1KQK9V84PLHIABQA,5
88,"[True, True, True, True, True, True]","[""How many flights are there per round?"",""True or false: The hidden values will change each time I start a new round."",""How much does it cost to observe each hidden value?"",""How many hidden values am I allowed to observe in each round?"",""How is your bonus determined?"",""What does the feedback teach you?""]","[""3"",""True"",""$1.60"",""As many or as few as I wish"",""5% of my score on a random round"",""All of the above.""]",60636,339471,survey-multi-choice,A12VQHPT0YHMIS,3M81GAB8A0JZ2Y1KQK9V84PLHIABQA,5
99,"[False, True, True, True, False, True]","[""How many flights are there per round?"",""True or false: The hidden values will change each time I start a new round."",""How much does it cost to observe each hidden value?"",""How many hidden values am I allowed to observe in each round?"",""How is your bonus determined?"",""What does the feedback teach you?""]","[""4"",""True"",""$2.80"",""As many or as few as I wish"",""10% of my best score on any round"",""All of the above.""]",32072,150419,survey-multi-choice,A13I8ASC3JQ04P,36V4Q8R5ZK0VLP5HH9Z4MK0FTHDMQ9,6
101,"[False, True, True, True, True, True]","[""How many flights are there per round?"",""True or false: The hidden values will change each time I start a new round."",""How much does it cost to observe each hidden value?"",""How many hidden values am I allowed to observe in each round?"",""How is your bonus determined?"",""What does the feedback teach you?""]","[""4"",""True"",""$2.80"",""As many or as few as I wish"",""5% of my score on a random round"",""All of the above.""]",39430,217385,survey-multi-choice,A13I8ASC3JQ04P,36V4Q8R5ZK0VLP5HH9Z4MK0FTHDMQ9,6
103,"[True, True, True, True, True, True]","[""How many flights are there per round?"",""True or false: The hidden values will change each time I start a new round."",""How much does it cost to observe each hidden value?"",""How many hidden values am I allowed to observe in each round?"",""How is your bonus determined?"",""What does the feedback teach you?""]","[""3"",""True"",""$2.80"",""As many or as few as I wish"",""5% of my score on a random round"",""All of the above.""]",14082,250680,survey-multi-choice,A13I8ASC3JQ04P,36V4Q8R5ZK0VLP5HH9Z4MK0FTHDMQ9,6
114,"[False, True, True, True, True, True]","[""How many flights are there per round?"",""True or false: The hidden values will change each time I start a new round."",""How much does it cost to observe each hidden value?"",""How many hidden values am I allowed to observe in each round?"",""How is your bonus determined?"",""What does the feedback teach you?""]","[""2"",""True"",""$2.80"",""As many or as few as I wish"",""5% of my score on a random round"",""All of the above.""]",305231,582651,survey-multi-choice,A13WFFPE9L1QAB,3G0WWMR1UVK137QHTAE4ZZPFY7PNQC,7
116,"[False, True, True, True, True, False]","[""How many flights are there per round?"",""True or false: The hidden values will change each time I start a new round."",""How much does it cost to observe each hidden value?"",""How many hidden values am I allowed to observe in each round?"",""How is your bonus determined?"",""What does the feedback teach you?""]","[""2"",""True"",""$2.80"",""As many or as few as I wish"",""5% of my score on a random round"",""Whether I chose the move that was best according to the information I had.""]",166947,762819,survey-multi-choice,A13WFFPE9L1QAB,3G0WWMR1UVK137QHTAE4ZZPFY7PNQC,7
118,"[False, True, True, True, False, True]","[""How many flights are there per round?"",""True or false: The hidden values will change each time I start a new round."",""How much does it cost to observe each hidden value?"",""How many hidden values am I allowed to observe in each round?"",""How is your bonus determined?"",""What does the feedback teach you?""]","[""2"",""True"",""$2.80"",""As many or as few as I wish"",""5% of my best score on any round"",""All of the above.""]",53509,864459,survey-multi-choice,A13WFFPE9L1QAB,3G0WWMR1UVK137QHTAE4ZZPFY7PNQC,7
120,"[False, True, True, True, True, False]","[""How many flights are there per round?"",""True or false: The hidden values will change each time I start a new round."",""How much does it cost to observe each hidden value?"",""How many hidden values am I allowed to observe in each round?"",""How is your bonus determined?"",""What does the feedback teach you?""]","[""2"",""True"",""$2.80"",""As many or as few as I wish"",""5% of my score on a random round"",""The length of the day is based on how much more money I could have earned by planning and deciding better.""]",45559,920595,survey-multi-choice,A13WFFPE9L1QAB,3G0WWMR1UVK137QHTAE4ZZPFY7PNQC,7
122,"[False, True, True, True, True, True]","[""How many flights are there per round?"",""True or false: The hidden values will change each time I start a new round."",""How much does it cost to observe each hidden value?"",""How many hidden values am I allowed to observe in each round?"",""How is your bonus determined?"",""What does the feedback teach you?""]","[""2"",""True"",""$2.80"",""As many or as few as I wish"",""5% of my score on a random round"",""All of the above.""]",39813,976799,survey-multi-choice,A13WFFPE9L1QAB,3G0WWMR1UVK137QHTAE4ZZPFY7PNQC,7
124,"[False, True, True, True, True, False]","[""How many flights are there per round?"",""True or false: The hidden values will change each time I start a new round."",""How much does it cost to observe each hidden value?"",""How many hidden values am I allowed to observe in each round?"",""How is your bonus determined?"",""What does the feedback teach you?""]","[""2"",""True"",""$2.80"",""As many or as few as I wish"",""5% of my score on a random round"",""Whether I observed the rewards of relevant locations.""]",27847,1019094,survey-multi-choice,A13WFFPE9L1QAB,3G0WWMR1UVK137QHTAE4ZZPFY7PNQC,7
126,"[False, True, True, True, False, True]","[""How many flights are there per round?"",""True or false: The hidden values will change each time I start a new round."",""How much does it cost to observe each hidden value?"",""How many hidden values am I allowed to observe in each round?"",""How is your bonus determined?"",""What does the feedback teach you?""]","[""2"",""True"",""$2.80"",""As many or as few as I wish"",""5% of my best score on any round"",""All of the above.""]",51916,1139950,survey-multi-choice,A13WFFPE9L1QAB,3G0WWMR1UVK137QHTAE4ZZPFY7PNQC,7
128,"[False, True, True, True, True, False]","[""How many flights are there per round?"",""True or false: The hidden values will change each time I start a new round."",""How much does it cost to observe each hidden value?"",""How many hidden values am I allowed to observe in each round?"",""How is your bonus determined?"",""What does the feedback teach you?""]","[""2"",""True"",""$2.80"",""As many or as few as I wish"",""5% of my score on a random round"",""Whether I chose the move that was best according to the information I had.""]",57666,1231078,survey-multi-choice,A13WFFPE9L1QAB,3G0WWMR1UVK137QHTAE4ZZPFY7PNQC,7
130,"[True, True, True, True, True, True]","[""How many flights are there per round?"",""True or false: The hidden values will change each time I start a new round."",""How much does it cost to observe each hidden value?"",""How many hidden values am I allowed to observe in each round?"",""How is your bonus determined?"",""What does the feedback teach you?""]","[""3"",""True"",""$2.80"",""As many or as few as I wish"",""5% of my score on a random round"",""All of the above.""]",20504,1264894,survey-multi-choice,A13WFFPE9L1QAB,3G0WWMR1UVK137QHTAE4ZZPFY7PNQC,7
141,"[False, True, True, True, True, True]","[""How many flights are there per round?"",""True or false: The hidden values will change each time I start a new round."",""How much does it cost to observe each hidden value?"",""How many hidden values am I allowed to observe in each round?"",""How is your bonus determined?"",""What does the feedback teach you?""]","[""1"",""True"",""$1.60"",""As many or as few as I wish"",""5% of my score on a random round"",""All of the above.""]",117810,313269,survey-multi-choice,A14VY6QXKBLC0D,32M8BPYGATMICHLCTYW00DPW6LMGIU,8
143,"[True, True, True, True, True, True]","[""How many flights are there per round?"",""True or false: The hidden values will change each time I start a new round."",""How much does it cost to observe each hidden value?"",""How many hidden values am I allowed to observe in each round?"",""How is your bonus determined?"",""What does the feedback teach you?""]","[""3"",""True"",""$1.60"",""As many or as few as I wish"",""5% of my score on a random round"",""All of the above.""]",70342,419031,survey-multi-choice,A14VY6QXKBLC0D,32M8BPYGATMICHLCTYW00DPW6LMGIU,8
154,"[True, True, True, True, True]","[""How many flights are there per round?"",""True or false: The hidden values will change each time I start a new round."",""How much does it cost to observe each hidden value?"",""How many hidden values am I allowed to observe in each round?"",""How is your bonus determined?""]","[""3"",""True"",""$0.01"",""As many or as few as I wish"",""5% of my score on a random round""]",63230,475974,survey-multi-choice,A14WLAP6TCEKO0,3YT88D1N08Y8O0ZCYMASUZF0UKD3KR,9
165,"[False, True, True, True, True]","[""How many flights are there per round?"",""True or false: The hidden values will change each time I start a new round."",""How much does it cost to observe each hidden value?"",""How many hidden values am I allowed to observe in each round?"",""How is your bonus determined?""]","[""1"",""True"",""$2.80"",""As many or as few as I wish"",""5% of my score on a random round""]",23308,144066,survey-multi-choice,A15J9THRK9QHZC,3EJPLAJKEMG2AELGHPB0OHFX8KM6ZG,10
167,"[False, True, True, True, True]","[""How many flights are there per round?"",""True or false: The hidden values will change each time I start a new round."",""How much does it cost to observe each hidden value?"",""How many hidden values am I allowed to observe in each round?"",""How is your bonus determined?""]","[""4"",""True"",""$2.80"",""As many or as few as I wish"",""5% of my score on a random round""]",15033,279907,survey-multi-choice,A15J9THRK9QHZC,3EJPLAJKEMG2AELGHPB0OHFX8KM6ZG,10
169,"[True, True, True, True, True]","[""How many flights are there per round?"",""True or false: The hidden values will change each time I start a new round."",""How much does it cost to observe each hidden value?"",""How many hidden values am I allowed to observe in each round?"",""How is your bonus determined?""]","[""3"",""True"",""$2.80"",""As many or as few as I wish"",""5% of my score on a random round""]",124258,490174,survey-multi-choice,A15J9THRK9QHZC,3EJPLAJKEMG2AELGHPB0OHFX8KM6ZG,10
180,"[False, True, True, True, True]","[""How many flights are there per round?"",""True or false: The hidden values will change each time I start a new round."",""How much does it cost to observe each hidden value?"",""How many hidden values am I allowed to observe in each round?"",""How is your bonus determined?""]","[""2"",""True"",""$1.60"",""As many or as few as I wish"",""5% of my score on a random round""]",14993,191319,survey-multi-choice,A17PAQSQ74L915,3ERET4BTVM9U32OSFVB2LCIMUCF9K6,11
182,"[False, True, True, True, True]","[""How many flights are there per round?"",""True or false: The hidden values will change each time I start a new round."",""How much does it cost to observe each hidden value?"",""How many hidden values am I allowed to observe in each round?"",""How is your bonus determined?""]","[""2"",""True"",""$1.60"",""As many or as few as I wish"",""5% of my score on a random round""]",145032,390318,survey-multi-choice,A17PAQSQ74L915,3ERET4BTVM9U32OSFVB2LCIMUCF9K6,11
184,"[True, True, True, True, True]","[""How many flights are there per round?"",""True or false: The hidden values will change each time I start a new round."",""How much does it cost to observe each hidden value?"",""How many hidden values am I allowed to observe in each round?"",""How is your bonus determined?""]","[""3"",""True"",""$1.60"",""As many or as few as I wish"",""5% of my score on a random round""]",13263,437989,survey-multi-choice,A17PAQSQ74L915,3ERET4BTVM9U32OSFVB2LCIMUCF9K6,11
195,"[False, True, True, True, True]","[""How many flights are there per round?"",""True or false: The hidden values will change each time I start a new round."",""How much does it cost to observe each hidden value?"",""How many hidden values am I allowed to observe in each round?"",""How is your bonus determined?""]","[""4"",""True"",""$2.80"",""As many or as few as I wish"",""5% of my score on a random round""]",35712,176686,survey-multi-choice,A17TX7CGJTHXAM,3AWETUDC92SI3YGHJQKPLK52HBNZI9,12
197,"[False, True, True, True, True]","[""How many flights are there per round?"",""True or false: The hidden values will change each time I start a new round."",""How much does it cost to observe each hidden value?"",""How many hidden values am I allowed to observe in each round?"",""How is your bonus determined?""]","[""1"",""True"",""$2.80"",""As many or as few as I wish"",""5% of my score on a random round""]",17386,239789,survey-multi-choice,A17TX7CGJTHXAM,3AWETUDC92SI3YGHJQKPLK52HBNZI9,12
199,"[True, True, True, True, True]","[""How many flights are there per round?"",""True or false: The hidden values will change each time I start a new round."",""How much does it cost to observe each hidden value?"",""How many hidden values am I allowed to observe in each round?"",""How is your bonus determined?""]","[""3"",""True"",""$2.80"",""As many or as few as I wish"",""5% of my score on a random round""]",9541,290178,survey-multi-choice,A17TX7CGJTHXAM,3AWETUDC92SI3YGHJQKPLK52HBNZI9,12
210,"[False, True, True, True, False, True]","[""How many flights are there per round?"",""True or false: The hidden values will change each time I start a new round."",""How much does it cost to observe each hidden value?"",""How many hidden values am I allowed to observe in each round?"",""How is your bonus determined?"",""What does the feedback teach you?""]","[""4"",""True"",""$0.01"",""As many or as few as I wish"",""10% of my total score on all rounds"",""All of the above.""]",32296,111684,survey-multi-choice,A18JN79AHDB8PD,38F5OAUN5NCZNTZRUDALUOBO75P7HQ,13
212,"[False, True, True, True, True, True]","[""How many flights are there per round?"",""True or false: The hidden values will change each time I start a new round."",""How much does it cost to observe each hidden value?"",""How many hidden values am I allowed to observe in each round?"",""How is your bonus determined?"",""What does the feedback teach you?""]","[""1"",""True"",""$0.01"",""As many or as few as I wish"",""5% of my score on a random round"",""All of the above.""]",10304,171104,survey-multi-choice,A18JN79AHDB8PD,38F5OAUN5NCZNTZRUDALUOBO75P7HQ,13
214,"[False, True, True, True, True, False]","[""How many flights are there per round?"",""True or false: The hidden values will change each time I start a new round."",""How much does it cost to observe each hidden value?"",""How many hidden values am I allowed to observe in each round?"",""How is your bonus determined?"",""What does the feedback teach you?""]","[""1"",""True"",""$0.01"",""As many or as few as I wish"",""5% of my score on a random round"",""Whether I observed the rewards of relevant locations.""]",26268,210290,survey-multi-choice,A18JN79AHDB8PD,38F5OAUN5NCZNTZRUDALUOBO75P7HQ,13
216,"[True, True, True, True, True, True]","[""How many flights are there per round?"",""True or false: The hidden values will change each time I start a new round."",""How much does it cost to observe each hidden value?"",""How many hidden values am I allowed to observe in each round?"",""How is your bonus determined?"",""What does the feedback teach you?""]","[""3"",""True"",""$0.01"",""As many or as few as I wish"",""5% of my score on a random round"",""All of the above.""]",16792,269414,survey-multi-choice,A18JN79AHDB8PD,38F5OAUN5NCZNTZRUDALUOBO75P7HQ,13
227,"[True, True, True, True, True]","[""How many flights are there per round?"",""True or false: The hidden values will change each time I start a new round."",""How much does it cost to observe each hidden value?"",""How many hidden values am I allowed to observe in each round?"",""How is your bonus determined?""]","[""3"",""True"",""$2.80"",""As many or as few as I wish"",""5% of my score on a random round""]",6660,15783,survey-multi-choice,A1C6NTK19FBQO0,3TY7ZAOG5FKC780FFZS9S1HTR8LK05,14
238,"[False, True, True, True, False, True]","[""How many flights are there per round?"",""True or false: The hidden values will change each time I start a new round."",""How much does it cost to observe each hidden value?"",""How many hidden values am I allowed to observe in each round?"",""How is your bonus determined?"",""What does the feedback teach you?""]","[""4"",""True"",""$2.80"",""As many or as few as I wish"",""10% of my total score on all rounds"",""All of the above.""]",28751,55233,survey-multi-choice,A1DJBDVXF6Z1KK,3TXMY6UCAEOIC3TQ4K5QJOV3Z3ACQI,15
240,"[False, True, True, True, True, False]","[""How many flights are there per round?"",""True or false: The hidden values will change each time I start a new round."",""How much does it cost to observe each hidden value?"",""How many hidden values am I allowed to observe in each round?"",""How is your bonus determined?"",""What does the feedback teach you?""]","[""2"",""True"",""$2.80"",""As many or as few as I wish"",""5% of my score on a random round"",""Whether I observed the rewards of relevant locations.""]",27478,139332,survey-multi-choice,A1DJBDVXF6Z1KK,3TXMY6UCAEOIC3TQ4K5QJOV3Z3ACQI,15
242,"[False, True, True, True, True, True]","[""How many flights are there per round?"",""True or false: The hidden values will change each time I start a new round."",""How much does it cost to observe each hidden value?"",""How many hidden values am I allowed to observe in each round?"",""How is your bonus determined?"",""What does the feedback teach you?""]","[""2"",""True"",""$2.80"",""As many or as few as I wish"",""5% of my score on a random round"",""All of the above.""]",14723,198902,survey-multi-choice,A1DJBDVXF6Z1KK,3TXMY6UCAEOIC3TQ4K5QJOV3Z3ACQI,15
244,"[False, True, True, True, True, False]","[""How many flights are there per round?"",""True or false: The hidden values will change each time I start a new round."",""How much does it cost to observe each hidden value?"",""How many hidden values am I allowed to observe in each round?"",""How is your bonus determined?"",""What does the feedback teach you?""]","[""2"",""True"",""$2.80"",""As many or as few as I wish"",""5% of my score on a random round"",""Whether I chose the move that was best according to the information I had.""]",40602,297243,survey-multi-choice,A1DJBDVXF6Z1KK,3TXMY6UCAEOIC3TQ4K5QJOV3Z3ACQI,15
246,"[False, True, True, True, True, True]","[""How many flights are there per round?"",""True or false: The hidden values will change each time I start a new round."",""How much does it cost to observe each hidden value?"",""How many hidden values am I allowed to observe in each round?"",""How is your bonus determined?"",""What does the feedback teach you?""]","[""1"",""True"",""$2.80"",""As many or as few as I wish"",""5% of my score on a random round"",""All of the above.""]",17138,405297,survey-multi-choice,A1DJBDVXF6Z1KK,3TXMY6UCAEOIC3TQ4K5QJOV3Z3ACQI,15
248,"[True, True, True, True, True, True]","[""How many flights are there per round?"",""True or false: The hidden values will change each time I start a new round."",""How much does it cost to observe each hidden value?"",""How many hidden values am I allowed to observe in each round?"",""How is your bonus determined?"",""What does the feedback teach you?""]","[""3"",""True"",""$2.80"",""As many or as few as I wish"",""5% of my score on a random round"",""All of the above.""]",10702,444721,survey-multi-choice,A1DJBDVXF6Z1KK,3TXMY6UCAEOIC3TQ4K5QJOV3Z3ACQI,15
259,"[False, False, True, True, True]","[""How many flights are there per round?"",""True or false: The hidden values will change each time I start a new round."",""How much does it cost to observe each hidden value?"",""How many hidden values am I allowed to observe in each round?"",""How is your bonus determined?""]","[""1"",""False"",""$1.60"",""As many or as few as I wish"",""5% of my score on a random round""]",37604,130926,survey-multi-choice,A1DQ4MAROY4HIJ,3EICBYG644W1QGPD9ULHMNJHL8JCJS,16
261,"[False, False, True, False, True]","[""How many flights are there per round?"",""True or false: The hidden values will change each time I start a new round."",""How much does it cost to observe each hidden value?"",""How many hidden values am I allowed to observe in each round?"",""How is your bonus determined?""]","[""1"",""False"",""$1.60"",""At most 1"",""5% of my score on a random round""]",31785,205203,survey-multi-choice,A1DQ4MAROY4HIJ,3EICBYG644W1QGPD9ULHMNJHL8JCJS,16
263,"[False, True, True, False, False]","[""How many flights are there per round?"",""True or false: The hidden values will change each time I start a new round."",""How much does it cost to observe each hidden value?"",""How many hidden values am I allowed to observe in each round?"",""How is your bonus determined?""]","[""1"",""True"",""$1.60"",""At most 1"",""5% of my best score on any round""]",17258,247482,survey-multi-choice,A1DQ4MAROY4HIJ,3EICBYG644W1QGPD9ULHMNJHL8JCJS,16
265,"[False, True, True, True, True]","[""How many flights are there per round?"",""True or false: The hidden values will change each time I start a new round."",""How much does it cost to observe each hidden value?"",""How many hidden values am I allowed to observe in each round?"",""How is your bonus determined?""]","[""1"",""True"",""$1.60"",""As many or as few as I wish"",""5% of my score on a random round""]",10907,303049,survey-multi-choice,A1DQ4MAROY4HIJ,3EICBYG644W1QGPD9ULHMNJHL8JCJS,16
267,"[True, True, True, True, True]","[""How many flights are there per round?"",""True or false: The hidden values will change each time I start a new round."",""How much does it cost to observe each hidden value?"",""How many hidden values am I allowed to observe in each round?"",""How is your bonus determined?""]","[""3"",""True"",""$1.60"",""As many or as few as I wish"",""5% of my score on a random round""]",13825,325339,survey-multi-choice,A1DQ4MAROY4HIJ,3EICBYG644W1QGPD9ULHMNJHL8JCJS,16
278,"[False, True, True, True, True, True]","[""How many flights are there per round?"",""True or false: The hidden values will change each time I start a new round."",""How much does it cost to observe each hidden value?"",""How many hidden values am I allowed to observe in each round?"",""How is your bonus determined?"",""What does the feedback teach you?""]","[""1"",""True"",""$1.60"",""As many or as few as I wish"",""5% of my score on a random round"",""All of the above.""]",28536,126379,survey-multi-choice,A1EKUJGMFDI1RZ,34HJIJKLP5W7M7CSX4TI6DINOI94VS,17
280,"[False, True, True, True, True, False]","[""How many flights are there per round?"",""True or false: The hidden values will change each time I start a new round."",""How much does it cost to observe each hidden value?"",""How many hidden values am I allowed to observe in each round?"",""How is your bonus determined?"",""What does the feedback teach you?""]","[""1"",""True"",""$1.60"",""As many or as few as I wish"",""5% of my score on a random round"",""Whether I chose the move that was best according to the information I had.""]",30869,180598,survey-multi-choice,A1EKUJGMFDI1RZ,34HJIJKLP5W7M7CSX4TI6DINOI94VS,17
282,"[False, True, True, True, True, False]","[""How many flights are there per round?"",""True or false: The hidden values will change each time I start a new round."",""How much does it cost to observe each hidden value?"",""How many hidden values am I allowed to observe in each round?"",""How is your bonus determined?"",""What does the feedback teach you?""]","[""1"",""True"",""$1.60"",""As many or as few as I wish"",""5% of my score on a random round"",""Whether I chose the move that was best according to the information I had.""]",31106,268853,survey-multi-choice,A1EKUJGMFDI1RZ,34HJIJKLP5W7M7CSX4TI6DINOI94VS,17
284,"[True, True, True, True, True, True]","[""How many flights are there per round?"",""True or false: The hidden values will change each time I start a new round."",""How much does it cost to observe each hidden value?"",""How many hidden values am I allowed to observe in each round?"",""How is your bonus determined?"",""What does the feedback teach you?""]","[""3"",""True"",""$1.60"",""As many or as few as I wish"",""5% of my score on a random round"",""All of the above.""]",8552,337555,survey-multi-choice,A1EKUJGMFDI1RZ,34HJIJKLP5W7M7CSX4TI6DINOI94VS,17
295,"[False, True, True, True, True, True]","[""How many flights are there per round?"",""True or false: The hidden values will change each time I start a new round."",""How much does it cost to observe each hidden value?"",""How many hidden values am I allowed to observe in each round?"",""How is your bonus determined?"",""What does the feedback teach you?""]","[""1"",""True"",""$1.60"",""As many or as few as I wish"",""5% of my score on a random round"",""All of the above.""]",38124,205838,survey-multi-choice,A1FUR4UJ0S46W6,3L4PIM1GQTGVR79VDRCFL5XRYD1RYD,18
297,"[False, True, True, True, True, False]","[""How many flights are there per round?"",""True or false: The hidden values will change each time I start a new round."",""How much does it cost to observe each hidden value?"",""How many hidden values am I allowed to observe in each round?"",""How is your bonus determined?"",""What does the feedback teach you?""]","[""1"",""True"",""$1.60"",""As many or as few as I wish"",""5% of my score on a random round"",""Whether I chose the move that was best according to the information I had.""]",15711,236999,survey-multi-choice,A1FUR4UJ0S46W6,3L4PIM1GQTGVR79VDRCFL5XRYD1RYD,18
299,"[True, True, True, True, True, False]","[""How many flights are there per round?"",""True or false: The hidden values will change each time I start a new round."",""How much does it cost to observe each hidden value?"",""How many hidden values am I allowed to observe in each round?"",""How is your bonus determined?"",""What does the feedback teach you?""]","[""3"",""True"",""$1.60"",""As many or as few as I wish"",""5% of my score on a random round"",""Whether I chose the move that was best according to the information I had.""]",40584,487039,survey-multi-choice,A1FUR4UJ0S46W6,3L4PIM1GQTGVR79VDRCFL5XRYD1RYD,18
301,"[False, True, True, True, True, False]","[""How many flights are there per round?"",""True or false: The hidden values will change each time I start a new round."",""How much does it cost to observe each hidden value?"",""How many hidden values am I allowed to observe in each round?"",""How is your bonus determined?"",""What does the feedback teach you?""]","[""1"",""True"",""$1.60"",""As many or as few as I wish"",""5% of my score on a random round"",""Whether I observed the rewards of relevant locations.""]",12740,638494,survey-multi-choice,A1FUR4UJ0S46W6,3L4PIM1GQTGVR79VDRCFL5XRYD1RYD,18
303,"[True, True, True, True, True, True]","[""How many flights are there per round?"",""True or false: The hidden values will change each time I start a new round."",""How much does it cost to observe each hidden value?"",""How many hidden values am I allowed to observe in each round?"",""How is your bonus determined?"",""What does the feedback teach you?""]","[""3"",""True"",""$1.60"",""As many or as few as I wish"",""5% of my score on a random round"",""All of the above.""]",12865,747062,survey-multi-choice,A1FUR4UJ0S46W6,3L4PIM1GQTGVR79VDRCFL5XRYD1RYD,18
314,"[True, True, True, True, True, False]","[""How many flights are there per round?"",""True or false: The hidden values will change each time I start a new round."",""How much does it cost to observe each hidden value?"",""How many hidden values am I allowed to observe in each round?"",""How is your bonus determined?"",""What does the feedback teach you?""]","[""3"",""True"",""$1.60"",""As many or as few as I wish"",""5% of my score on a random round"",""Whether I observed the rewards of relevant locations.""]",144634,158958,survey-multi-choice,A1HFRP0CYB6IGF,3JMSRU9HQIUPE99LMA5VFZUE172EV7,19
316,"[True, True, True, True, True, True]","[""How many flights are there per round?"",""True or false: The hidden values will change each time I start a new round."",""How much does it cost to observe each hidden value?"",""How many hidden values am I allowed to observe in each round?"",""How is your bonus determined?"",""What does the feedback teach you?""]","[""3"",""True"",""$1.60"",""As many or as few as I wish"",""5% of my score on a random round"",""All of the above.""]",12928,180145,survey-multi-choice,A1HFRP0CYB6IGF,3JMSRU9HQIUPE99LMA5VFZUE172EV7,19
327,"[False, True, True, True, True]","[""How many flights are there per round?"",""True or false: The hidden values will change each time I start a new round."",""How much does it cost to observe each hidden value?"",""How many hidden values am I allowed to observe in each round?"",""How is your bonus determined?""]","[""1"",""True"",""$2.80"",""As many or as few as I wish"",""5% of my score on a random round""]",49083,213964,survey-multi-choice,A1HGSSITI7GRQS,33PPUNGG385VWXJ09DEYZC6T47YRZX,20
329,"[False, True, True, True, True]","[""How many flights are there per round?"",""True or false: The hidden values will change each time I start a new round."",""How much does it cost to observe each hidden value?"",""How many hidden values am I allowed to observe in each round?"",""How is your bonus determined?""]","[""4"",""True"",""$2.80"",""As many or as few as I wish"",""5% of my score on a random round""]",20952,351172,survey-multi-choice,A1HGSSITI7GRQS,33PPUNGG385VWXJ09DEYZC6T47YRZX,20
331,"[False, True, True, True, True]","[""How many flights are there per round?"",""True or false: The hidden values will change each time I start a new round."",""How much does it cost to observe each hidden value?"",""How many hidden values am I allowed to observe in each round?"",""How is your bonus determined?""]","[""2"",""True"",""$2.80"",""As many or as few as I wish"",""5% of my score on a random round""]",11033,370427,survey-multi-choice,A1HGSSITI7GRQS,33PPUNGG385VWXJ09DEYZC6T47YRZX,20
333,"[True, True, True, True, True]","[""How many flights are there per round?"",""True or false: The hidden values will change each time I start a new round."",""How much does it cost to observe each hidden value?"",""How many hidden values am I allowed to observe in each round?"",""How is your bonus determined?""]","[""3"",""True"",""$2.80"",""As many or as few as I wish"",""5% of my score on a random round""]",14004,392294,survey-multi-choice,A1HGSSITI7GRQS,33PPUNGG385VWXJ09DEYZC6T47YRZX,20
344,"[True, True, True, True, True, True]","[""How many flights are there per round?"",""True or false: The hidden values will change each time I start a new round."",""How much does it cost to observe each hidden value?"",""How many hidden values am I allowed to observe in each round?"",""How is your bonus determined?"",""What does the feedback teach you?""]","[""3"",""True"",""$0.01"",""As many or as few as I wish"",""5% of my score on a random round"",""All of the above.""]",38250,187675,survey-multi-choice,A1HXZLVIVK5HJE,3C8HJ7UOP7U4ZH6845IHDDCJYK6ZMO,21
355,"[True, True, True, True, True, False]","[""How many flights are there per round?"",""True or false: The hidden values will change each time I start a new round."",""How much does it cost to observe each hidden value?"",""How many hidden values am I allowed to observe in each round?"",""How is your bonus determined?"",""What does the feedback teach you?""]","[""3"",""True"",""$0.01"",""As many or as few as I wish"",""5% of my score on a random round"",""Whether I chose the move that was best according to the information I had.""]",23389,119855,survey-multi-choice,A1KVHMCUC5E0MS,3H8DHMCCW9B66S19RBG4781CLXVDKS,22
357,"[True, True, True, True, True, True]","[""How many flights are there per round?"",""True or false: The hidden values will change each time I start a new round."",""How much does it cost to observe each hidden value?"",""How many hidden values am I allowed to observe in each round?"",""How is your bonus determined?"",""What does the feedback teach you?""]","[""3"",""True"",""$0.01"",""As many or as few as I wish"",""5% of my score on a random round"",""All of the above.""]",32267,193897,survey-multi-choice,A1KVHMCUC5E0MS,3H8DHMCCW9B66S19RBG4781CLXVDKS,22
368,"[False, True, True, True, True, True]","[""How many flights are there per round?"",""True or false: The hidden values will change each time I start a new round."",""How much does it cost to observe each hidden value?"",""How many hidden values am I allowed to observe in each round?"",""How is your bonus determined?"",""What does the feedback teach you?""]","[""1"",""True"",""$0.01"",""As many or as few as I wish"",""5% of my score on a random round"",""All of the above.""]",63853,244950,survey-multi-choice,A1LIB650YAB82E,3UNH76FOCS54URW38JGYZ63HSQWYMQ,23
370,"[False, True, True, True, True, False]","[""How many flights are there per round?"",""True or false: The hidden values will change each time I start a new round."",""How much does it cost to observe each hidden value?"",""How many hidden values am I allowed to observe in each round?"",""How is your bonus determined?"",""What does the feedback teach you?""]","[""1"",""True"",""$0.01"",""As many or as few as I wish"",""5% of my score on a random round"",""Whether I observed the rewards of relevant locations.""]",32140,373743,survey-multi-choice,A1LIB650YAB82E,3UNH76FOCS54URW38JGYZ63HSQWYMQ,23
372,"[False, True, True, True, True, False]","[""How many flights are there per round?"",""True or false: The hidden values will change each time I start a new round."",""How much does it cost to observe each hidden value?"",""How many hidden values am I allowed to observe in each round?"",""How is your bonus determined?"",""What does the feedback teach you?""]","[""1"",""True"",""$0.01"",""As many or as few as I wish"",""5% of my score on a random round"",""Whether I chose the move that was best according to the information I had.""]",68918,464656,survey-multi-choice,A1LIB650YAB82E,3UNH76FOCS54URW38JGYZ63HSQWYMQ,23
374,"[True, True, True, True, True, False]","[""How many flights are there per round?"",""True or false: The hidden values will change each time I start a new round."",""How much does it cost to observe each hidden value?"",""How many hidden values am I allowed to observe in each round?"",""How is your bonus determined?"",""What does the feedback teach you?""]","[""3"",""True"",""$0.01"",""As many or as few as I wish"",""5% of my score on a random round"",""Whether I chose the move that was best according to the information I had.""]",42092,623856,survey-multi-choice,A1LIB650YAB82E,3UNH76FOCS54URW38JGYZ63HSQWYMQ,23
376,"[False, True, True, True, True, False]","[""How many flights are there per round?"",""True or false: The hidden values will change each time I start a new round."",""How much does it cost to observe each hidden value?"",""How many hidden values am I allowed to observe in each round?"",""How is your bonus determined?"",""What does the feedback teach you?""]","[""1"",""True"",""$0.01"",""As many or as few as I wish"",""5% of my score on a random round"",""Whether I chose the move that was best according to the information I had.""]",49310,691090,survey-multi-choice,A1LIB650YAB82E,3UNH76FOCS54URW38JGYZ63HSQWYMQ,23
378,"[False, True, True, True, True, False]","[""How many flights are there per round?"",""True or false: The hidden values will change each time I start a new round."",""How much does it cost to observe each hidden value?"",""How many hidden values am I allowed to observe in each round?"",""How is your bonus determined?"",""What does the feedback teach you?""]","[""1"",""True"",""$0.01"",""As many or as few as I wish"",""5% of my score on a random round"",""Whether I chose the move that was best according to the information I had.""]",26417,739683,survey-multi-choice,A1LIB650YAB82E,3UNH76FOCS54URW38JGYZ63HSQWYMQ,23
380,"[False, True, True, True, True, False]","[""How many flights are there per round?"",""True or false: The hidden values will change each time I start a new round."",""How much does it cost to observe each hidden value?"",""How many hidden values am I allowed to observe in each round?"",""How is your bonus determined?"",""What does the feedback teach you?""]","[""2"",""True"",""$0.01"",""As many or as few as I wish"",""5% of my score on a random round"",""Whether I chose the move that was best according to the information I had.""]",53023,813379,survey-multi-choice,A1LIB650YAB82E,3UNH76FOCS54URW38JGYZ63HSQWYMQ,23
382,"[True, True, True, True, True, False]","[""How many flights are there per round?"",""True or false: The hidden values will change each time I start a new round."",""How much does it cost to observe each hidden value?"",""How many hidden values am I allowed to observe in each round?"",""How is your bonus determined?"",""What does the feedback teach you?""]","[""3"",""True"",""$0.01"",""As many or as few as I wish"",""5% of my score on a random round"",""Whether I chose the move that was best according to the information I had.""]",27048,856728,survey-multi-choice,A1LIB650YAB82E,3UNH76FOCS54URW38JGYZ63HSQWYMQ,23
384,"[True, True, True, True, True, True]","[""How many flights are there per round?"",""True or false: The hidden values will change each time I start a new round."",""How much does it cost to observe each hidden value?"",""How many hidden values am I allowed to observe in each round?"",""How is your bonus determined?"",""What does the feedback teach you?""]","[""3"",""True"",""$0.01"",""As many or as few as I wish"",""5% of my score on a random round"",""All of the above.""]",38806,916245,survey-multi-choice,A1LIB650YAB82E,3UNH76FOCS54URW38JGYZ63HSQWYMQ,23
395,"[False, True, True, False, False, False]","[""How many flights are there per round?"",""True or false: The hidden values will change each time I start a new round."",""How much does it cost to observe each hidden value?"",""How many hidden values am I allowed to observe in each round?"",""How is your bonus determined?"",""What does the feedback teach you?""]","[""2"",""True"",""$1.60"",""At most 5"",""5% of my best score on any round"",""Whether I chose the move that was best according to the information I had.""]",10163,19265,survey-multi-choice,A1M0JDU08KRH7X,3A4TN5196KI5ZAUNLUIWAA328GEHCR,24
397,"[False, True, True, True, True, False]","[""How many flights are there per round?"",""True or false: The hidden values will change each time I start a new round."",""How much does it cost to observe each hidden value?"",""How many hidden values am I allowed to observe in each round?"",""How is your bonus determined?"",""What does the feedback teach you?""]","[""1"",""True"",""$1.60"",""As many or as few as I wish"",""5% of my score on a random round"",""Whether I chose the move that was best according to the information I had.""]",20826,75673,survey-multi-choice,A1M0JDU08KRH7X,3A4TN5196KI5ZAUNLUIWAA328GEHCR,24
399,"[False, True, True, True, True, True]","[""How many flights are there per round?"",""True or false: The hidden values will change each time I start a new round."",""How much does it cost to observe each hidden value?"",""How many hidden values am I allowed to observe in each round?"",""How is your bonus determined?"",""What does the feedback teach you?""]","[""1"",""True"",""$1.60"",""As many or as few as I wish"",""5% of my score on a random round"",""All of the above.""]",9336,109407,survey-multi-choice,A1M0JDU08KRH7X,3A4TN5196KI5ZAUNLUIWAA328GEHCR,24
401,"[False, True, True, True, True, False]","[""How many flights are there per round?"",""True or false: The hidden values will change each time I start a new round."",""How much does it cost to observe each hidden value?"",""How many hidden values am I allowed to observe in each round?"",""How is your bonus determined?"",""What does the feedback teach you?""]","[""1"",""True"",""$1.60"",""As many or as few as I wish"",""5% of my score on a random round"",""Whether I observed the rewards of relevant locations.""]",17810,167047,survey-multi-choice,A1M0JDU08KRH7X,3A4TN5196KI5ZAUNLUIWAA328GEHCR,24
403,"[False, False, True, True, True, True]","[""How many flights are there per round?"",""True or false: The hidden values will change each time I start a new round."",""How much does it cost to observe each hidden value?"",""How many hidden values am I allowed to observe in each round?"",""How is your bonus determined?"",""What does the feedback teach you?""]","[""1"",""False"",""$1.60"",""As many or as few as I wish"",""5% of my score on a random round"",""All of the above.""]",18760,229766,survey-multi-choice,A1M0JDU08KRH7X,3A4TN5196KI5ZAUNLUIWAA328GEHCR,24
405,"[False, True, True, True, True, True]","[""How many flights are there per round?"",""True or false: The hidden values will change each time I start a new round."",""How much does it cost to observe each hidden value?"",""How many hidden values am I allowed to observe in each round?"",""How is your bonus determined?"",""What does the feedback teach you?""]","[""2"",""True"",""$1.60"",""As many or as few as I wish"",""5% of my score on a random round"",""All of the above.""]",8333,247187,survey-multi-choice,A1M0JDU08KRH7X,3A4TN5196KI5ZAUNLUIWAA328GEHCR,24
407,"[False, True, True, True, True, False]","[""How many flights are there per round?"",""True or false: The hidden values will change each time I start a new round."",""How much does it cost to observe each hidden value?"",""How many hidden values am I allowed to observe in each round?"",""How is your bonus determined?"",""What does the feedback teach you?""]","[""2"",""True"",""$1.60"",""As many or as few as I wish"",""5% of my score on a random round"",""Whether I observed the rewards of relevant locations.""]",23859,355057,survey-multi-choice,A1M0JDU08KRH7X,3A4TN5196KI5ZAUNLUIWAA328GEHCR,24
409,"[False, True, True, True, True, True]","[""How many flights are there per round?"",""True or false: The hidden values will change each time I start a new round."",""How much does it cost to observe each hidden value?"",""How many hidden values am I allowed to observe in each round?"",""How is your bonus determined?"",""What does the feedback teach you?""]","[""2"",""True"",""$1.60"",""As many or as few as I wish"",""5% of my score on a random round"",""All of the above.""]",6582,371828,survey-multi-choice,A1M0JDU08KRH7X,3A4TN5196KI5ZAUNLUIWAA328GEHCR,24
411,"[False, True, True, True, True, False]","[""How many flights are there per round?"",""True or false: The hidden values will change each time I start a new round."",""How much does it cost to observe each hidden value?"",""How many hidden values am I allowed to observe in each round?"",""How is your bonus determined?"",""What does the feedback teach you?""]","[""2"",""True"",""$1.60"",""As many or as few as I wish"",""5% of my score on a random round"",""Whether I chose the move that was best according to the information I had.""]",13107,392753,survey-multi-choice,A1M0JDU08KRH7X,3A4TN5196KI5ZAUNLUIWAA328GEHCR,24
413,"[False, True, True, True, True, False]","[""How many flights are there per round?"",""True or false: The hidden values will change each time I start a new round."",""How much does it cost to observe each hidden value?"",""How many hidden values am I allowed to observe in each round?"",""How is your bonus determined?"",""What does the feedback teach you?""]","[""1"",""True"",""$1.60"",""As many or as few as I wish"",""5% of my score on a random round"",""Whether I observed the rewards of relevant locations.""]",9559,431788,survey-multi-choice,A1M0JDU08KRH7X,3A4TN5196KI5ZAUNLUIWAA328GEHCR,24
415,"[False, True, True, True, True, False]","[""How many flights are there per round?"",""True or false: The hidden values will change each time I start a new round."",""How much does it cost to observe each hidden value?"",""How many hidden values am I allowed to observe in each round?"",""How is your bonus determined?"",""What does the feedback teach you?""]","[""1"",""True"",""$1.60"",""As many or as few as I wish"",""5% of my score on a random round"",""Whether I chose the move that was best according to the information I had.""]",27744,552282,survey-multi-choice,A1M0JDU08KRH7X,3A4TN5196KI5ZAUNLUIWAA328GEHCR,24
417,"[False, True, True, True, True, False]","[""How many flights are there per round?"",""True or false: The hidden values will change each time I start a new round."",""How much does it cost to observe each hidden value?"",""How many hidden values am I allowed to observe in each round?"",""How is your bonus determined?"",""What does the feedback teach you?""]","[""2"",""True"",""$1.60"",""As many or as few as I wish"",""5% of my score on a random round"",""Whether I chose the move that was best according to the information I had.""]",20763,595703,survey-multi-choice,A1M0JDU08KRH7X,3A4TN5196KI5ZAUNLUIWAA328GEHCR,24
419,"[False, True, True, True, True, False]","[""How many flights are there per round?"",""True or false: The hidden values will change each time I start a new round."",""How much does it cost to observe each hidden value?"",""How many hidden values am I allowed to observe in each round?"",""How is your bonus determined?"",""What does the feedback teach you?""]","[""4"",""True"",""$1.60"",""As many or as few as I wish"",""5% of my score on a random round"",""Whether I chose the move that was best according to the information I had.""]",6872,627171,survey-multi-choice,A1M0JDU08KRH7X,3A4TN5196KI5ZAUNLUIWAA328GEHCR,24
421,"[False, True, True, True, True, False]","[""How many flights are there per round?"",""True or false: The hidden values will change each time I start a new round."",""How much does it cost to observe each hidden value?"",""How many hidden values am I allowed to observe in each round?"",""How is your bonus determined?"",""What does the feedback teach you?""]","[""2"",""True"",""$1.60"",""As many or as few as I wish"",""5% of my score on a random round"",""Whether I chose the move that was best according to the information I had.""]",8579,641152,survey-multi-choice,A1M0JDU08KRH7X,3A4TN5196KI5ZAUNLUIWAA328GEHCR,24
423,"[True, True, True, True, True, False]","[""How many flights are there per round?"",""True or false: The hidden values will change each time I start a new round."",""How much does it cost to observe each hidden value?"",""How many hidden values am I allowed to observe in each round?"",""How is your bonus determined?"",""What does the feedback teach you?""]","[""3"",""True"",""$1.60"",""As many or as few as I wish"",""5% of my score on a random round"",""Whether I chose the move that was best according to the information I had.""]",6032,656135,survey-multi-choice,A1M0JDU08KRH7X,3A4TN5196KI5ZAUNLUIWAA328GEHCR,24
425,"[False, True, True, True, True, True]","[""How many flights are there per round?"",""True or false: The hidden values will change each time I start a new round."",""How much does it cost to observe each hidden value?"",""How many hidden values am I allowed to observe in each round?"",""How is your bonus determined?"",""What does the feedback teach you?""]","[""1"",""True"",""$1.60"",""As many or as few as I wish"",""5% of my score on a random round"",""All of the above.""]",12854,681600,survey-multi-choice,A1M0JDU08KRH7X,3A4TN5196KI5ZAUNLUIWAA328GEHCR,24
427,"[False, True, True, True, True, True]","[""How many flights are there per round?"",""True or false: The hidden values will change each time I start a new round."",""How much does it cost to observe each hidden value?"",""How many hidden values am I allowed to observe in each round?"",""How is your bonus determined?"",""What does the feedback teach you?""]","[""2"",""True"",""$1.60"",""As many or as few as I wish"",""5% of my score on a random round"",""All of the above.""]",7147,692471,survey-multi-choice,A1M0JDU08KRH7X,3A4TN5196KI5ZAUNLUIWAA328GEHCR,24
429,"[True, True, True, True, True, True]","[""How many flights are there per round?"",""True or false: The hidden values will change each time I start a new round."",""How much does it cost to observe each hidden value?"",""How many hidden values am I allowed to observe in each round?"",""How is your bonus determined?"",""What does the feedback teach you?""]","[""3"",""True"",""$1.60"",""As many or as few as I wish"",""5% of my score on a random round"",""All of the above.""]",5882,701070,survey-multi-choice,A1M0JDU08KRH7X,3A4TN5196KI5ZAUNLUIWAA328GEHCR,24
440,"[False, True, True, True, True, True]","[""How many flights are there per round?"",""True or false: The hidden values will change each time I start a new round."",""How much does it cost to observe each hidden value?"",""How many hidden values am I allowed to observe in each round?"",""How is your bonus determined?"",""What does the feedback teach you?""]","[""4"",""True"",""$2.80"",""As many or as few as I wish"",""5% of my score on a random round"",""All of the above.""]",81978,248770,survey-multi-choice,A1MAAPY9K1G1YR,33PPUNGG385VWXJ09DEYZC6T470RZZ,25
442,"[False, True, True, True, True, True]","[""How many flights are there per round?"",""True or false: The hidden values will change each time I start a new round."",""How much does it cost to observe each hidden value?"",""How many hidden values am I allowed to observe in each round?"",""How is your bonus determined?"",""What does the feedback teach you?""]","[""1"",""True"",""$2.80"",""As many or as few as I wish"",""5% of my score on a random round"",""All of the above.""]",22704,336937,survey-multi-choice,A1MAAPY9K1G1YR,33PPUNGG385VWXJ09DEYZC6T470RZZ,25
444,"[False, True, True, True, True, False]","[""How many flights are there per round?"",""True or false: The hidden values will change each time I start a new round."",""How much does it cost to observe each hidden value?"",""How many hidden values am I allowed to observe in each round?"",""How is your bonus determined?"",""What does the feedback teach you?""]","[""1"",""True"",""$2.80"",""As many or as few as I wish"",""5% of my score on a random round"",""Whether I chose the move that was best according to the information I had.""]",33390,439458,survey-multi-choice,A1MAAPY9K1G1YR,33PPUNGG385VWXJ09DEYZC6T470RZZ,25
446,"[False, True, True, True, True, True]","[""How many flights are there per round?"",""True or false: The hidden values will change each time I start a new round."",""How much does it cost to observe each hidden value?"",""How many hidden values am I allowed to observe in each round?"",""How is your bonus determined?"",""What does the feedback teach you?""]","[""2"",""True"",""$2.80"",""As many or as few as I wish"",""5% of my score on a random round"",""All of the above.""]",24511,559153,survey-multi-choice,A1MAAPY9K1G1YR,33PPUNGG385VWXJ09DEYZC6T470RZZ,25
448,"[True, True, True, True, True, True]","[""How many flights are there per round?"",""True or false: The hidden values will change each time I start a new round."",""How much does it cost to observe each hidden value?"",""How many hidden values am I allowed to observe in each round?"",""How is your bonus determined?"",""What does the feedback teach you?""]","[""3"",""True"",""$2.80"",""As many or as few as I wish"",""5% of my score on a random round"",""All of the above.""]",13674,581107,survey-multi-choice,A1MAAPY9K1G1YR,33PPUNGG385VWXJ09DEYZC6T470RZZ,25
459,"[False, True, True, True, True, True]","[""How many flights are there per round?"",""True or false: The hidden values will change each time I start a new round."",""How much does it cost to observe each hidden value?"",""How many hidden values am I allowed to observe in each round?"",""How is your bonus determined?"",""What does the feedback teach you?""]","[""1"",""True"",""$2.80"",""As many or as few as I wish"",""5% of my score on a random round"",""All of the above.""]",50434,139914,survey-multi-choice,A1NIKHUA79SWGD,373ERPL3YO8ZALA13LPGDO5CJBJRTO,26
461,"[True, True, True, True, True, True]","[""How many flights are there per round?"",""True or false: The hidden values will change each time I start a new round."",""How much does it cost to observe each hidden value?"",""How many hidden values am I allowed to observe in each round?"",""How is your bonus determined?"",""What does the feedback teach you?""]","[""3"",""True"",""$2.80"",""As many or as few as I wish"",""5% of my score on a random round"",""All of the above.""]",30347,297722,survey-multi-choice,A1NIKHUA79SWGD,373ERPL3YO8ZALA13LPGDO5CJBJRTO,26
472,"[False, True, True, True, False]","[""How many flights are there per round?"",""True or false: The hidden values will change each time I start a new round."",""How much does it cost to observe each hidden value?"",""How many hidden values am I allowed to observe in each round?"",""How is your bonus determined?""]","[""4"",""True"",""$0.01"",""As many or as few as I wish"",""10% of my total score on all rounds""]",22352,538006,survey-multi-choice,A1PMZUBGXFANCI,3R9WASFE2ZGYT7ERIIE4INSA1JOZFB,27
474,"[False, True, True, True, True]","[""How many flights are there per round?"",""True or false: The hidden values will change each time I start a new round."",""How much does it cost to observe each hidden value?"",""How many hidden values am I allowed to observe in each round?"",""How is your bonus determined?""]","[""4"",""True"",""$0.01"",""As many or as few as I wish"",""5% of my score on a random round""]",16170,578918,survey-multi-choice,A1PMZUBGXFANCI,3R9WASFE2ZGYT7ERIIE4INSA1JOZFB,27
476,"[False, True, True, True, True]","[""How many flights are there per round?"",""True or false: The hidden values will change each time I start a new round."",""How much does it cost to observe each hidden value?"",""How many hidden values am I allowed to observe in each round?"",""How is your bonus determined?""]","[""1"",""True"",""$0.01"",""As many or as few as I wish"",""5% of my score on a random round""]",14572,649120,survey-multi-choice,A1PMZUBGXFANCI,3R9WASFE2ZGYT7ERIIE4INSA1JOZFB,27
478,"[False, True, True, True, True]","[""How many flights are there per round?"",""True or false: The hidden values will change each time I start a new round."",""How much does it cost to observe each hidden value?"",""How many hidden values am I allowed to observe in each round?"",""How is your bonus determined?""]","[""1"",""True"",""$0.01"",""As many or as few as I wish"",""5% of my score on a random round""]",9351,702141,survey-multi-choice,A1PMZUBGXFANCI,3R9WASFE2ZGYT7ERIIE4INSA1JOZFB,27
480,"[True, True, True, True, True]","[""How many flights are there per round?"",""True or false: The hidden values will change each time I start a new round."",""How much does it cost to observe each hidden value?"",""How many hidden values am I allowed to observe in each round?"",""How is your bonus determined?""]","[""3"",""True"",""$0.01"",""As many or as few as I wish"",""5% of my score on a random round""]",10514,768946,survey-multi-choice,A1PMZUBGXFANCI,3R9WASFE2ZGYT7ERIIE4INSA1JOZFB,27
491,"[True, True, True, True, True, True]","[""How many flights are there per round?"",""True or false: The hidden values will change each time I start a new round."",""How much does it cost to observe each hidden value?"",""How many hidden values am I allowed to observe in each round?"",""How is your bonus determined?"",""What does the feedback teach you?""]","[""3"",""True"",""$1.60"",""As many or as few as I wish"",""5% of my score on a random round"",""All of the above.""]",73001,131032,survey-multi-choice,A1QJ2VPPZG16EG,3X4MXAO0BGOR22EVYQUR08CBN5URW7,28
502,"[False, True, True, True, True]","[""How many flights are there per round?"",""True or false: The hidden values will change each time I start a new round."",""How much does it cost to observe each hidden value?"",""How many hidden values am I allowed to observe in each round?"",""How is your bonus determined?""]","[""1"",""True"",""$0.01"",""As many or as few as I wish"",""5% of my score on a random round""]",48082,236462,survey-multi-choice,A1QNHP262DXUDH,3UWN2HHPUY5DGN5ULE39UZ4GGVBNS2,29
504,"[True, True, True, True, True]","[""How many flights are there per round?"",""True or false: The hidden values will change each time I start a new round."",""How much does it cost to observe each hidden value?"",""How many hidden values am I allowed to observe in each round?"",""How is your bonus determined?""]","[""3"",""True"",""$0.01"",""As many or as few as I wish"",""5% of my score on a random round""]",25320,305188,survey-multi-choice,A1QNHP262DXUDH,3UWN2HHPUY5DGN5ULE39UZ4GGVBNS2,29
515,"[False, True, True, True, True, True]","[""How many flights are there per round?"",""True or false: The hidden values will change each time I start a new round."",""How much does it cost to observe each hidden value?"",""How many hidden values am I allowed to observe in each round?"",""How is your bonus determined?"",""What does the feedback teach you?""]","[""1"",""True"",""$1.60"",""As many or as few as I wish"",""5% of my score on a random round"",""All of the above.""]",30626,85677,survey-multi-choice,A1U37XNO6J1R9G,3OXV7EAXLEQ1PLENWIGRKGAITPN36G,30
517,"[False, True, True, True, True, False]","[""How many flights are there per round?"",""True or false: The hidden values will change each time I start a new round."",""How much does it cost to observe each hidden value?"",""How many hidden values am I allowed to observe in each round?"",""How is your bonus determined?"",""What does the feedback teach you?""]","[""1"",""True"",""$1.60"",""As many or as few as I wish"",""5% of my score on a random round"",""Whether I observed the rewards of relevant locations.""]",23359,166599,survey-multi-choice,A1U37XNO6J1R9G,3OXV7EAXLEQ1PLENWIGRKGAITPN36G,30
519,"[False, True, True, True, True, True]","[""How many flights are there per round?"",""True or false: The hidden values will change each time I start a new round."",""How much does it cost to observe each hidden value?"",""How many hidden values am I allowed to observe in each round?"",""How is your bonus determined?"",""What does the feedback teach you?""]","[""4"",""True"",""$1.60"",""As many or as few as I wish"",""5% of my score on a random round"",""All of the above.""]",16955,192293,survey-multi-choice,A1U37XNO6J1R9G,3OXV7EAXLEQ1PLENWIGRKGAITPN36G,30
521,"[False, True, True, True, True, False]","[""How many flights are there per round?"",""True or false: The hidden values will change each time I start a new round."",""How much does it cost to observe each hidden value?"",""How many hidden values am I allowed to observe in each round?"",""How is your bonus determined?"",""What does the feedback teach you?""]","[""1"",""True"",""$1.60"",""As many or as few as I wish"",""5% of my score on a random round"",""Whether I chose the move that was best according to the information I had.""]",25972,247023,survey-multi-choice,A1U37XNO6J1R9G,3OXV7EAXLEQ1PLENWIGRKGAITPN36G,30
523,"[False, True, True, True, True, False]","[""How many flights are there per round?"",""True or false: The hidden values will change each time I start a new round."",""How much does it cost to observe each hidden value?"",""How many hidden values am I allowed to observe in each round?"",""How is your bonus determined?"",""What does the feedback teach you?""]","[""2"",""True"",""$1.60"",""As many or as few as I wish"",""5% of my score on a random round"",""Whether I chose the move that was best according to the information I had.""]",11568,277266,survey-multi-choice,A1U37XNO6J1R9G,3OXV7EAXLEQ1PLENWIGRKGAITPN36G,30
525,"[False, True, True, True, True, True]","[""How many flights are there per round?"",""True or false: The hidden values will change each time I start a new round."",""How much does it cost to observe each hidden value?"",""How many hidden values am I allowed to observe in each round?"",""How is your bonus determined?"",""What does the feedback teach you?""]","[""2"",""True"",""$1.60"",""As many or as few as I wish"",""5% of my score on a random round"",""All of the above.""]",10552,297446,survey-multi-choice,A1U37XNO6J1R9G,3OXV7EAXLEQ1PLENWIGRKGAITPN36G,30
527,"[False, True, True, True, True, False]","[""How many flights are there per round?"",""True or false: The hidden values will change each time I start a new round."",""How much does it cost to observe each hidden value?"",""How many hidden values am I allowed to observe in each round?"",""How is your bonus determined?"",""What does the feedback teach you?""]","[""2"",""True"",""$1.60"",""As many or as few as I wish"",""5% of my score on a random round"",""Whether I observed the rewards of relevant locations.""]",9813,315910,survey-multi-choice,A1U37XNO6J1R9G,3OXV7EAXLEQ1PLENWIGRKGAITPN36G,30
529,"[False, True, True, True, True, False]","[""How many flights are there per round?"",""True or false: The hidden values will change each time I start a new round."",""How much does it cost to observe each hidden value?"",""How many hidden values am I allowed to observe in each round?"",""How is your bonus determined?"",""What does the feedback teach you?""]","[""1"",""True"",""$1.60"",""As many or as few as I wish"",""5% of my score on a random round"",""Whether I chose the move that was best according to the information I had.""]",19426,357903,survey-multi-choice,A1U37XNO6J1R9G,3OXV7EAXLEQ1PLENWIGRKGAITPN36G,30
531,"[False, True, True, True, True, False]","[""How many flights are there per round?"",""True or false: The hidden values will change each time I start a new round."",""How much does it cost to observe each hidden value?"",""How many hidden values am I allowed to observe in each round?"",""How is your bonus determined?"",""What does the feedback teach you?""]","[""1"",""True"",""$1.60"",""As many or as few as I wish"",""5% of my score on a random round"",""Whether I observed the rewards of relevant locations.""]",9882,396112,survey-multi-choice,A1U37XNO6J1R9G,3OXV7EAXLEQ1PLENWIGRKGAITPN36G,30
533,"[False, True, True, True, True, True]","[""How many flights are there per round?"",""True or false: The hidden values will change each time I start a new round."",""How much does it cost to observe each hidden value?"",""How many hidden values am I allowed to observe in each round?"",""How is your bonus determined?"",""What does the feedback teach you?""]","[""1"",""True"",""$1.60"",""As many or as few as I wish"",""5% of my score on a random round"",""All of the above.""]",16360,420588,survey-multi-choice,A1U37XNO6J1R9G,3OXV7EAXLEQ1PLENWIGRKGAITPN36G,30
535,"[False, True, True, True, True, True]","[""How many flights are there per round?"",""True or false: The hidden values will change each time I start a new round."",""How much does it cost to observe each hidden value?"",""How many hidden values am I allowed to observe in each round?"",""How is your bonus determined?"",""What does the feedback teach you?""]","[""1"",""True"",""$1.60"",""As many or as few as I wish"",""5% of my score on a random round"",""All of the above.""]",33082,509086,survey-multi-choice,A1U37XNO6J1R9G,3OXV7EAXLEQ1PLENWIGRKGAITPN36G,30
537,"[False, True, True, True, True, True]","[""How many flights are there per round?"",""True or false: The hidden values will change each time I start a new round."",""How much does it cost to observe each hidden value?"",""How many hidden values am I allowed to observe in each round?"",""How is your bonus determined?"",""What does the feedback teach you?""]","[""4"",""True"",""$1.60"",""As many or as few as I wish"",""5% of my score on a random round"",""All of the above.""]",9322,527880,survey-multi-choice,A1U37XNO6J1R9G,3OXV7EAXLEQ1PLENWIGRKGAITPN36G,30
539,"[True, True, True, True, True, True]","[""How many flights are there per round?"",""True or false: The hidden values will change each time I start a new round."",""How much does it cost to observe each hidden value?"",""How many hidden values am I allowed to observe in each round?"",""How is your bonus determined?"",""What does the feedback teach you?""]","[""3"",""True"",""$1.60"",""As many or as few as I wish"",""5% of my score on a random round"",""All of the above.""]",9822,544019,survey-multi-choice,A1U37XNO6J1R9G,3OXV7EAXLEQ1PLENWIGRKGAITPN36G,30
550,"[True, True, True, True, True, True]","[""How many flights are there per round?"",""True or false: The hidden values will change each time I start a new round."",""How much does it cost to observe each hidden value?"",""How many hidden values am I allowed to observe in each round?"",""How is your bonus determined?"",""What does the feedback teach you?""]","[""3"",""True"",""$1.60"",""As many or as few as I wish"",""5% of my score on a random round"",""All of the above.""]",20529,53640,survey-multi-choice,A1V3FV89RVGASD,39N5ACM9HENVETL8SNGAHT4LOMLP9N,31
561,"[False, True, True, True, True, True]","[""How many flights are there per round?"",""True or false: The hidden values will change each time I start a new round."",""How much does it cost to observe each hidden value?"",""How many hidden values am I allowed to observe in each round?"",""How is your bonus determined?"",""What does the feedback teach you?""]","[""1"",""True"",""$1.60"",""As many or as few as I wish"",""5% of my score on a random round"",""All of the above.""]",41873,201553,survey-multi-choice,A1WMOYIMJMIV9P,32EYX73OY09EAYPQ3QFQIKRE2PQRUF,32
563,"[False, True, True, True, True, False]","[""How many flights are there per round?"",""True or false: The hidden values will change each time I start a new round."",""How much does it cost to observe each hidden value?"",""How many hidden values am I allowed to observe in each round?"",""How is your bonus determined?"",""What does the feedback teach you?""]","[""1"",""True"",""$1.60"",""As many or as few as I wish"",""5% of my score on a random round"",""Whether I observed the rewards of relevant locations.""]",14270,328344,survey-multi-choice,A1WMOYIMJMIV9P,32EYX73OY09EAYPQ3QFQIKRE2PQRUF,32
565,"[False, True, True, True, True, True]","[""How many flights are there per round?"",""True or false: The hidden values will change each time I start a new round."",""How much does it cost to observe each hidden value?"",""How many hidden values am I allowed to observe in each round?"",""How is your bonus determined?"",""What does the feedback teach you?""]","[""2"",""True"",""$1.60"",""As many or as few as I wish"",""5% of my score on a random round"",""All of the above.""]",9725,352096,survey-multi-choice,A1WMOYIMJMIV9P,32EYX73OY09EAYPQ3QFQIKRE2PQRUF,32
567,"[True, True, True, True, True, True]","[""How many flights are there per round?"",""True or false: The hidden values will change each time I start a new round."",""How much does it cost to observe each hidden value?"",""How many hidden values am I allowed to observe in each round?"",""How is your bonus determined?"",""What does the feedback teach you?""]","[""3"",""True"",""$1.60"",""As many or as few as I wish"",""5% of my score on a random round"",""All of the above.""]",9343,364418,survey-multi-choice,A1WMOYIMJMIV9P,32EYX73OY09EAYPQ3QFQIKRE2PQRUF,32
578,"[True, True, True, True, True, False]","[""How many flights are there per round?"",""True or false: The hidden values will change each time I start a new round."",""How much does it cost to observe each hidden value?"",""How many hidden values am I allowed to observe in each round?"",""How is your bonus determined?"",""What does the feedback teach you?""]","[""3"",""True"",""$2.80"",""As many or as few as I wish"",""5% of my score on a random round"",""Whether I chose the move that was best according to the information I had.""]",24692,126279,survey-multi-choice,A1WWPREEDRRKML,32VNZTT0A74FT0VBOKO85GTK3CX4R0,33
580,"[False, True, True, True, True, False]","[""How many flights are there per round?"",""True or false: The hidden values will change each time I start a new round."",""How much does it cost to observe each hidden value?"",""How many hidden values am I allowed to observe in each round?"",""How is your bonus determined?"",""What does the feedback teach you?""]","[""4"",""True"",""$2.80"",""As many or as few as I wish"",""5% of my score on a random round"",""Whether I chose the move that was best according to the information I had.""]",21226,204232,survey-multi-choice,A1WWPREEDRRKML,32VNZTT0A74FT0VBOKO85GTK3CX4R0,33
582,"[True, True, True, True, True, True]","[""How many flights are there per round?"",""True or false: The hidden values will change each time I start a new round."",""How much does it cost to observe each hidden value?"",""How many hidden values am I allowed to observe in each round?"",""How is your bonus determined?"",""What does the feedback teach you?""]","[""3"",""True"",""$2.80"",""As many or as few as I wish"",""5% of my score on a random round"",""All of the above.""]",15226,239131,survey-multi-choice,A1WWPREEDRRKML,32VNZTT0A74FT0VBOKO85GTK3CX4R0,33
593,"[True, True, True, True, True, False]","[""How many flights are there per round?"",""True or false: The hidden values will change each time I start a new round."",""How much does it cost to observe each hidden value?"",""How many hidden values am I allowed to observe in each round?"",""How is your bonus determined?"",""What does the feedback teach you?""]","[""3"",""True"",""$2.80"",""As many or as few as I wish"",""5% of my score on a random round"",""Whether I chose the move that was best according to the information I had.""]",43821,159730,survey-multi-choice,A1X1GFV9H8AGSL,3PJUZCGDJ6GA81MR66EZV79VZCL98N,34
595,"[False, True, True, True, True, False]","[""How many flights are there per round?"",""True or false: The hidden values will change each time I start a new round."",""How much does it cost to observe each hidden value?"",""How many hidden values am I allowed to observe in each round?"",""How is your bonus determined?"",""What does the feedback teach you?""]","[""1"",""True"",""$2.80"",""As many or as few as I wish"",""5% of my score on a random round"",""Whether I observed the rewards of relevant locations.""]",24976,249292,survey-multi-choice,A1X1GFV9H8AGSL,3PJUZCGDJ6GA81MR66EZV79VZCL98N,34
597,"[False, True, True, True, True, False]","[""How many flights are there per round?"",""True or false: The hidden values will change each time I start a new round."",""How much does it cost to observe each hidden value?"",""How many hidden values am I allowed to observe in each round?"",""How is your bonus determined?"",""What does the feedback teach you?""]","[""1"",""True"",""$2.80"",""As many or as few as I wish"",""5% of my score on a random round"",""Whether I observed the rewards of relevant locations.""]",23246,297686,survey-multi-choice,A1X1GFV9H8AGSL,3PJUZCGDJ6GA81MR66EZV79VZCL98N,34
599,"[False, True, True, True, True, True]","[""How many flights are there per round?"",""True or false: The hidden values will change each time I start a new round."",""How much does it cost to observe each hidden value?"",""How many hidden values am I allowed to observe in each round?"",""How is your bonus determined?"",""What does the feedback teach you?""]","[""1"",""True"",""$2.80"",""As many or as few as I wish"",""5% of my score on a random round"",""All of the above.""]",16629,376718,survey-multi-choice,A1X1GFV9H8AGSL,3PJUZCGDJ6GA81MR66EZV79VZCL98N,34
601,"[True, True, True, True, True, True]","[""How many flights are there per round?"",""True or false: The hidden values will change each time I start a new round."",""How much does it cost to observe each hidden value?"",""How many hidden values am I allowed to observe in each round?"",""How is your bonus determined?"",""What does the feedback teach you?""]","[""3"",""True"",""$2.80"",""As many or as few as I wish"",""5% of my score on a random round"",""All of the above.""]",24960,418670,survey-multi-choice,A1X1GFV9H8AGSL,3PJUZCGDJ6GA81MR66EZV79VZCL98N,34
612,"[False, True, True, True, True]","[""How many flights are there per round?"",""True or false: The hidden values will change each time I start a new round."",""How much does it cost to observe each hidden value?"",""How many hidden values am I allowed to observe in each round?"",""How is your bonus determined?""]","[""4"",""True"",""$1.60"",""As many or as few as I wish"",""5% of my score on a random round""]",48729,145715,survey-multi-choice,A1XO8OG4R3A7BJ,32RIADZISS4RUFVO39ODVQYGPEH4SP,35
614,"[False, True, True, True, True]","[""How many flights are there per round?"",""True or false: The hidden values will change each time I start a new round."",""How much does it cost to observe each hidden value?"",""How many hidden values am I allowed to observe in each round?"",""How is your bonus determined?""]","[""2"",""True"",""$1.60"",""As many or as few as I wish"",""5% of my score on a random round""]",19720,329191,survey-multi-choice,A1XO8OG4R3A7BJ,32RIADZISS4RUFVO39ODVQYGPEH4SP,35
616,"[False, True, True, True, True]","[""How many flights are there per round?"",""True or false: The hidden values will change each time I start a new round."",""How much does it cost to observe each hidden value?"",""How many hidden values am I allowed to observe in each round?"",""How is your bonus determined?""]","[""1"",""True"",""$1.60"",""As many or as few as I wish"",""5% of my score on a random round""]",24475,568945,survey-multi-choice,A1XO8OG4R3A7BJ,32RIADZISS4RUFVO39ODVQYGPEH4SP,35
618,"[True, True, True, True, True]","[""How many flights are there per round?"",""True or false: The hidden values will change each time I start a new round."",""How much does it cost to observe each hidden value?"",""How many hidden values am I allowed to observe in each round?"",""How is your bonus determined?""]","[""3"",""True"",""$1.60"",""As many or as few as I wish"",""5% of my score on a random round""]",23518,629753,survey-multi-choice,A1XO8OG4R3A7BJ,32RIADZISS4RUFVO39ODVQYGPEH4SP,35
629,"[False, True, True, True, True, True]","[""How many flights are there per round?"",""True or false: The hidden values will change each time I start a new round."",""How much does it cost to observe each hidden value?"",""How many hidden values am I allowed to observe in each round?"",""How is your bonus determined?"",""What does the feedback teach you?""]","[""1"",""True"",""$2.80"",""As many or as few as I wish"",""5% of my score on a random round"",""All of the above.""]",61650,289403,survey-multi-choice,A1XVYOL52UT8T9,3J88R45B2GYLFP36V3MOXWQ3VPDPX7,36
631,"[False, True, True, True, True, True]","[""How many flights are there per round?"",""True or false: The hidden values will change each time I start a new round."",""How much does it cost to observe each hidden value?"",""How many hidden values am I allowed to observe in each round?"",""How is your bonus determined?"",""What does the feedback teach you?""]","[""4"",""True"",""$2.80"",""As many or as few as I wish"",""5% of my score on a random round"",""All of the above.""]",39859,521016,survey-multi-choice,A1XVYOL52UT8T9,3J88R45B2GYLFP36V3MOXWQ3VPDPX7,36
633,"[False, True, True, True, True, False]","[""How many flights are there per round?"",""True or false: The hidden values will change each time I start a new round."",""How much does it cost to observe each hidden value?"",""How many hidden values am I allowed to observe in each round?"",""How is your bonus determined?"",""What does the feedback teach you?""]","[""4"",""True"",""$2.80"",""As many or as few as I wish"",""5% of my score on a random round"",""Whether I chose the move that was best according to the information I had.""]",35894,591203,survey-multi-choice,A1XVYOL52UT8T9,3J88R45B2GYLFP36V3MOXWQ3VPDPX7,36
635,"[False, True, True, True, True, True]","[""How many flights are there per round?"",""True or false: The hidden values will change each time I start a new round."",""How much does it cost to observe each hidden value?"",""How many hidden values am I allowed to observe in each round?"",""How is your bonus determined?"",""What does the feedback teach you?""]","[""4"",""True"",""$2.80"",""As many or as few as I wish"",""5% of my score on a random round"",""All of the above.""]",48624,763296,survey-multi-choice,A1XVYOL52UT8T9,3J88R45B2GYLFP36V3MOXWQ3VPDPX7,36
637,"[False, True, True, True, True, True]","[""How many flights are there per round?"",""True or false: The hidden values will change each time I start a new round."",""How much does it cost to observe each hidden value?"",""How many hidden values am I allowed to observe in each round?"",""How is your bonus determined?"",""What does the feedback teach you?""]","[""1"",""True"",""$2.80"",""As many or as few as I wish"",""5% of my score on a random round"",""All of the above.""]",49166,821612,survey-multi-choice,A1XVYOL52UT8T9,3J88R45B2GYLFP36V3MOXWQ3VPDPX7,36
639,"[True, True, True, True, True, True]","[""How many flights are there per round?"",""True or false: The hidden values will change each time I start a new round."",""How much does it cost to observe each hidden value?"",""How many hidden values am I allowed to observe in each round?"",""How is your bonus determined?"",""What does the feedback teach you?""]","[""3"",""True"",""$2.80"",""As many or as few as I wish"",""5% of my score on a random round"",""All of the above.""]",36777,1002654,survey-multi-choice,A1XVYOL52UT8T9,3J88R45B2GYLFP36V3MOXWQ3VPDPX7,36
650,"[False, True, True, True, True]","[""How many flights are there per round?"",""True or false: The hidden values will change each time I start a new round."",""How much does it cost to observe each hidden value?"",""How many hidden values am I allowed to observe in each round?"",""How is your bonus determined?""]","[""2"",""True"",""$0.01"",""As many or as few as I wish"",""5% of my score on a random round""]",21498,79190,survey-multi-choice,A1YH20CUYZOF6I,3MD9PLUKKIEAHZR8G6XHQS1J3A9ZNH,37
652,"[True, True, True, True, True]","[""How many flights are there per round?"",""True or false: The hidden values will change each time I start a new round."",""How much does it cost to observe each hidden value?"",""How many hidden values am I allowed to observe in each round?"",""How is your bonus determined?""]","[""3"",""True"",""$0.01"",""As many or as few as I wish"",""5% of my score on a random round""]",10903,133287,survey-multi-choice,A1YH20CUYZOF6I,3MD9PLUKKIEAHZR8G6XHQS1J3A9ZNH,37
663,"[False, True, True, True, True]","[""How many flights are there per round?"",""True or false: The hidden values will change each time I start a new round."",""How much does it cost to observe each hidden value?"",""How many hidden values am I allowed to observe in each round?"",""How is your bonus determined?""]","[""1"",""True"",""$1.60"",""As many or as few as I wish"",""5% of my score on a random round""]",20561,108196,survey-multi-choice,A1Z6F664MYBMVI,39KFRKBFINVSUUHFLZVBRASMNQAOYU,38
665,"[False, True, True, True, True]","[""How many flights are there per round?"",""True or false: The hidden values will change each time I start a new round."",""How much does it cost to observe each hidden value?"",""How many hidden values am I allowed to observe in each round?"",""How is your bonus determined?""]","[""1"",""True"",""$1.60"",""As many or as few as I wish"",""5% of my score on a random round""]",23437,201418,survey-multi-choice,A1Z6F664MYBMVI,39KFRKBFINVSUUHFLZVBRASMNQAOYU,38
667,"[False, True, True, True, True]","[""How many flights are there per round?"",""True or false: The hidden values will change each time I start a new round."",""How much does it cost to observe each hidden value?"",""How many hidden values am I allowed to observe in each round?"",""How is your bonus determined?""]","[""4"",""True"",""$1.60"",""As many or as few as I wish"",""5% of my score on a random round""]",38760,308202,survey-multi-choice,A1Z6F664MYBMVI,39KFRKBFINVSUUHFLZVBRASMNQAOYU,38
669,"[False, False, True, True, True]","[""How many flights are there per round?"",""True or false: The hidden values will change each time I start a new round."",""How much does it cost to observe each hidden value?"",""How many hidden values am I allowed to observe in each round?"",""How is your bonus determined?""]","[""1"",""False"",""$1.60"",""As many or as few as I wish"",""5% of my score on a random round""]",15286,400082,survey-multi-choice,A1Z6F664MYBMVI,39KFRKBFINVSUUHFLZVBRASMNQAOYU,38
671,"[False, True, True, True, True]","[""How many flights are there per round?"",""True or false: The hidden values will change each time I start a new round."",""How much does it cost to observe each hidden value?"",""How many hidden values am I allowed to observe in each round?"",""How is your bonus determined?""]","[""2"",""True"",""$1.60"",""As many or as few as I wish"",""5% of my score on a random round""]",41709,452371,survey-multi-choice,A1Z6F664MYBMVI,39KFRKBFINVSUUHFLZVBRASMNQAOYU,38
673,"[False, False, True, True, True]","[""How many flights are there per round?"",""True or false: The hidden values will change each time I start a new round."",""How much does it cost to observe each hidden value?"",""How many hidden values am I allowed to observe in each round?"",""How is your bonus determined?""]","[""1"",""False"",""$1.60"",""As many or as few as I wish"",""5% of my score on a random round""]",14952,474856,survey-multi-choice,A1Z6F664MYBMVI,39KFRKBFINVSUUHFLZVBRASMNQAOYU,38
675,"[True, True, True, True, True]","[""How many flights are there per round?"",""True or false: The hidden values will change each time I start a new round."",""How much does it cost to observe each hidden value?"",""How many hidden values am I allowed to observe in each round?"",""How is your bonus determined?""]","[""3"",""True"",""$1.60"",""As many or as few as I wish"",""5% of my score on a random round""]",10639,492776,survey-multi-choice,A1Z6F664MYBMVI,39KFRKBFINVSUUHFLZVBRASMNQAOYU,38
686,"[False, True, True, True, False, True]","[""How many flights are there per round?"",""True or false: The hidden values will change each time I start a new round."",""How much does it cost to observe each hidden value?"",""How many hidden values am I allowed to observe in each round?"",""How is your bonus determined?"",""What does the feedback teach you?""]","[""1"",""True"",""$2.80"",""As many or as few as I wish"",""5% of my best score on any round"",""All of the above.""]",21072,45932,survey-multi-choice,A20CZCJPRP54G9,3WEV0KO0OMS4UBEHWKP6YUSM2R7SDN,39
688,"[False, True, True, True, True, False]","[""How many flights are there per round?"",""True or false: The hidden values will change each time I start a new round."",""How much does it cost to observe each hidden value?"",""How many hidden values am I allowed to observe in each round?"",""How is your bonus determined?"",""What does the feedback teach you?""]","[""1"",""True"",""$2.80"",""As many or as few as I wish"",""5% of my score on a random round"",""Whether I observed the rewards of relevant locations.""]",20323,102490,survey-multi-choice,A20CZCJPRP54G9,3WEV0KO0OMS4UBEHWKP6YUSM2R7SDN,39
690,"[False, True, True, True, True, False]","[""How many flights are there per round?"",""True or false: The hidden values will change each time I start a new round."",""How much does it cost to observe each hidden value?"",""How many hidden values am I allowed to observe in each round?"",""How is your bonus determined?"",""What does the feedback teach you?""]","[""1"",""True"",""$2.80"",""As many or as few as I wish"",""5% of my score on a random round"",""The length of the day is based on how much more money I could have earned by planning and deciding better.""]",22057,142306,survey-multi-choice,A20CZCJPRP54G9,3WEV0KO0OMS4UBEHWKP6YUSM2R7SDN,39
692,"[False, True, True, True, True, False]","[""How many flights are there per round?"",""True or false: The hidden values will change each time I start a new round."",""How much does it cost to observe each hidden value?"",""How many hidden values am I allowed to observe in each round?"",""How is your bonus determined?"",""What does the feedback teach you?""]","[""2"",""True"",""$2.80"",""As many or as few as I wish"",""5% of my score on a random round"",""Whether I chose the move that was best according to the information I had.""]",12535,160722,survey-multi-choice,A20CZCJPRP54G9,3WEV0KO0OMS4UBEHWKP6YUSM2R7SDN,39
694,"[False, True, True, True, True, False]","[""How many flights are there per round?"",""True or false: The hidden values will change each time I start a new round."",""How much does it cost to observe each hidden value?"",""How many hidden values am I allowed to observe in each round?"",""How is your bonus determined?"",""What does the feedback teach you?""]","[""2"",""True"",""$2.80"",""As many or as few as I wish"",""5% of my score on a random round"",""Whether I observed the rewards of relevant locations.""]",8784,175530,survey-multi-choice,A20CZCJPRP54G9,3WEV0KO0OMS4UBEHWKP6YUSM2R7SDN,39
696,"[True, True, True, True, True, True]","[""How many flights are there per round?"",""True or false: The hidden values will change each time I start a new round."",""How much does it cost to observe each hidden value?"",""How many hidden values am I allowed to observe in each round?"",""How is your bonus determined?"",""What does the feedback teach you?""]","[""3"",""True"",""$2.80"",""As many or as few as I wish"",""5% of my score on a random round"",""All of the above.""]",15283,196444,survey-multi-choice,A20CZCJPRP54G9,3WEV0KO0OMS4UBEHWKP6YUSM2R7SDN,39
707,"[False, True, True, False, False, False]","[""How many flights are there per round?"",""True or false: The hidden values will change each time I start a new round."",""How much does it cost to observe each hidden value?"",""How many hidden values am I allowed to observe in each round?"",""How is your bonus determined?"",""What does the feedback teach you?""]","[""2"",""True"",""$0.01"",""At most 10"",""10% of my best score on any round"",""The length of the day is based on how much more money I could have earned by planning and deciding better.""]",53782,165059,survey-multi-choice,A20TXFAVV4IXHX,32XVDSJFPZXET63WFY93Q22CDB2M2Y,40
709,"[False, False, True, False, False, False]","[""How many flights are there per round?"",""True or false: The hidden values will change each time I start a new round."",""How much does it cost to observe each hidden value?"",""How many hidden values am I allowed to observe in each round?"",""How is your bonus determined?"",""What does the feedback teach you?""]","[""2"",""False"",""$0.01"",""At most 1"",""5% of my best score on any round"",""Whether I observed the rewards of relevant locations.""]",19938,250492,survey-multi-choice,A20TXFAVV4IXHX,32XVDSJFPZXET63WFY93Q22CDB2M2Y,40
