,correct,questions,responses,rt,time_elapsed,trial_type,worker_id,assignment_id,pid
1,"[False, False, True, False, False, True]","[""How many flights are there per round?"",""True or false: The hidden values will change each time I start a new round."",""How much does it cost to observe each hidden value?"",""How many hidden values am I allowed to observe in each round?"",""How is your bonus determined?"",""What does the feedback teach you?""]","[""1"",""False"",""$2.80"",""At most 1"",""10% of my best score on any round"",""All of the above.""]",73154,326318,survey-multi-choice,A105Q9KX0PVR4N,3KGTPGBS6XLX6E85O00PHCJ6QX42U5,0
3,"[False, False, True, True, True, True]","[""How many flights are there per round?"",""True or false: The hidden values will change each time I start a new round."",""How much does it cost to observe each hidden value?"",""How many hidden values am I allowed to observe in each round?"",""How is your bonus determined?"",""What does the feedback teach you?""]","[""1"",""False"",""$2.80"",""As many or as few as I wish"",""5% of my score on a random round"",""All of the above.""]",28329,442459,survey-multi-choice,A105Q9KX0PVR4N,3KGTPGBS6XLX6E85O00PHCJ6QX42U5,0
5,"[True, False, True, True, True, True]","[""How many flights are there per round?"",""True or false: The hidden values will change each time I start a new round."",""How much does it cost to observe each hidden value?"",""How many hidden values am I allowed to observe in each round?"",""How is your bonus determined?"",""What does the feedback teach you?""]","[""3"",""False"",""$2.80"",""As many or as few as I wish"",""5% of my score on a random round"",""All of the above.""]",16170,497307,survey-multi-choice,A105Q9KX0PVR4N,3KGTPGBS6XLX6E85O00PHCJ6QX42U5,0
7,"[True, True, True, True, True, True]","[""How many flights are there per round?"",""True or false: The hidden values will change each time I start a new round."",""How much does it cost to observe each hidden value?"",""How many hidden values am I allowed to observe in each round?"",""How is your bonus determined?"",""What does the feedback teach you?""]","[""3"",""True"",""$2.80"",""As many or as few as I wish"",""5% of my score on a random round"",""All of the above.""]",15555,569359,survey-multi-choice,A105Q9KX0PVR4N,3KGTPGBS6XLX6E85O00PHCJ6QX42U5,0
18,"[False, True, True, True, True, True]","[""How many flights are there per round?"",""True or false: The hidden values will change each time I start a new round."",""How much does it cost to observe each hidden value?"",""How many hidden values am I allowed to observe in each round?"",""How is your bonus determined?"",""What does the feedback teach you?""]","[""1"",""True"",""$1.60"",""As many or as few as I wish"",""5% of my score on a random round"",""All of the above.""]",32477,98415,survey-multi-choice,A10XW6SNPNQX16,3TYCR1GOTCJKTZON4TH2D0XUYF8ZLE,1
20,"[False, True, True, True, True, True]","[""How many flights are there per round?"",""True or false: The hidden values will change each time I start a new round."",""How much does it cost to observe each hidden value?"",""How many hidden values am I allowed to observe in each round?"",""How is your bonus determined?"",""What does the feedback teach you?""]","[""2"",""True"",""$1.60"",""As many or as few as I wish"",""5% of my score on a random round"",""All of the above.""]",10365,172161,survey-multi-choice,A10XW6SNPNQX16,3TYCR1GOTCJKTZON4TH2D0XUYF8ZLE,1
22,"[False, True, True, True, True, False]","[""How many flights are there per round?"",""True or false: The hidden values will change each time I start a new round."",""How much does it cost to observe each hidden value?"",""How many hidden values am I allowed to observe in each round?"",""How is your bonus determined?"",""What does the feedback teach you?""]","[""2"",""True"",""$1.60"",""As many or as few as I wish"",""5% of my score on a random round"",""The length of the day is based on how much more money I could have earned by planning and deciding better.""]",22297,203708,survey-multi-choice,A10XW6SNPNQX16,3TYCR1GOTCJKTZON4TH2D0XUYF8ZLE,1
24,"[False, False, True, True, True, True]","[""How many flights are there per round?"",""True or false: The hidden values will change each time I start a new round."",""How much does it cost to observe each hidden value?"",""How many hidden values am I allowed to observe in each round?"",""How is your bonus determined?"",""What does the feedback teach you?""]","[""2"",""False"",""$1.60"",""As many or as few as I wish"",""5% of my score on a random round"",""All of the above.""]",18498,255756,survey-multi-choice,A10XW6SNPNQX16,3TYCR1GOTCJKTZON4TH2D0XUYF8ZLE,1
26,"[False, True, True, True, True, False]","[""How many flights are there per round?"",""True or false: The hidden values will change each time I start a new round."",""How much does it cost to observe each hidden value?"",""How many hidden values am I allowed to observe in each round?"",""How is your bonus determined?"",""What does the feedback teach you?""]","[""2"",""True"",""$1.60"",""As many or as few as I wish"",""5% of my score on a random round"",""Whether I chose the move that was best according to the information I had.""]",15038,297751,survey-multi-choice,A10XW6SNPNQX16,3TYCR1GOTCJKTZON4TH2D0XUYF8ZLE,1
28,"[False, True, True, True, True, False]","[""How many flights are there per round?"",""True or false: The hidden values will change each time I start a new round."",""How much does it cost to observe each hidden value?"",""How many hidden values am I allowed to observe in each round?"",""How is your bonus determined?"",""What does the feedback teach you?""]","[""2"",""True"",""$1.60"",""As many or as few as I wish"",""5% of my score on a random round"",""The length of the day is based on how much more money I could have earned by planning and deciding better.""]",12271,326516,survey-multi-choice,A10XW6SNPNQX16,3TYCR1GOTCJKTZON4TH2D0XUYF8ZLE,1
30,"[False, True, True, True, True, False]","[""How many flights are there per round?"",""True or false: The hidden values will change each time I start a new round."",""How much does it cost to observe each hidden value?"",""How many hidden values am I allowed to observe in each round?"",""How is your bonus determined?"",""What does the feedback teach you?""]","[""2"",""True"",""$1.60"",""As many or as few as I wish"",""5% of my score on a random round"",""Whether I observed the rewards of relevant locations.""]",24085,379115,survey-multi-choice,A10XW6SNPNQX16,3TYCR1GOTCJKTZON4TH2D0XUYF8ZLE,1
32,"[True, True, True, True, True, True]","[""How many flights are there per round?"",""True or false: The hidden values will change each time I start a new round."",""How much does it cost to observe each hidden value?"",""How many hidden values am I allowed to observe in each round?"",""How is your bonus determined?"",""What does the feedback teach you?""]","[""3"",""True"",""$1.60"",""As many or as few as I wish"",""5% of my score on a random round"",""All of the above.""]",10259,443122,survey-multi-choice,A10XW6SNPNQX16,3TYCR1GOTCJKTZON4TH2D0XUYF8ZLE,1
43,"[True, True, True, True, True]","[""How many flights are there per round?"",""True or false: The hidden values will change each time I start a new round."",""How much does it cost to observe each hidden value?"",""How many hidden values am I allowed to observe in each round?"",""How is your bonus determined?""]","[""3"",""True"",""$1.60"",""As many or as few as I wish"",""5% of my score on a random round""]",14394,40529,survey-multi-choice,A1295RHU5X5GTX,3PMBY0YE273CK4C4NIU4XT5EP36C9W,2
54,"[False, True, True, True, True, True]","[""How many flights are there per round?"",""True or false: The hidden values will change each time I start a new round."",""How much does it cost to observe each hidden value?"",""How many hidden values am I allowed to observe in each round?"",""How is your bonus determined?"",""What does the feedback teach you?""]","[""1"",""True"",""$1.60"",""As many or as few as I wish"",""5% of my score on a random round"",""All of the above.""]",79158,155128,survey-multi-choice,A12VQHPT0YHMIS,3M81GAB8A0JZ2Y1KQK9V84PLHIABQA,3
56,"[False, True, True, True, True, False]","[""How many flights are there per round?"",""True or false: The hidden values will change each time I start a new round."",""How much does it cost to observe each hidden value?"",""How many hidden values am I allowed to observe in each round?"",""How is your bonus determined?"",""What does the feedback teach you?""]","[""1"",""True"",""$1.60"",""As many or as few as I wish"",""5% of my score on a random round"",""Whether I chose the move that was best according to the information I had.""]",46746,271707,survey-multi-choice,A12VQHPT0YHMIS,3M81GAB8A0JZ2Y1KQK9V84PLHIABQA,3
58,"[True, True, True, True, True, True]","[""How many flights are there per round?"",""True or false: The hidden values will change each time I start a new round."",""How much does it cost to observe each hidden value?"",""How many hidden values am I allowed to observe in each round?"",""How is your bonus determined?"",""What does the feedback teach you?""]","[""3"",""True"",""$1.60"",""As many or as few as I wish"",""5% of my score on a random round"",""All of the above.""]",60636,339471,survey-multi-choice,A12VQHPT0YHMIS,3M81GAB8A0JZ2Y1KQK9V84PLHIABQA,3
69,"[False, True, True, True, False, True]","[""How many flights are there per round?"",""True or false: The hidden values will change each time I start a new round."",""How much does it cost to observe each hidden value?"",""How many hidden values am I allowed to observe in each round?"",""How is your bonus determined?"",""What does the feedback teach you?""]","[""4"",""True"",""$2.80"",""As many or as few as I wish"",""10% of my best score on any round"",""All of the above.""]",32072,150419,survey-multi-choice,A13I8ASC3JQ04P,36V4Q8R5ZK0VLP5HH9Z4MK0FTHDMQ9,4
71,"[False, True, True, True, True, True]","[""How many flights are there per round?"",""True or false: The hidden values will change each time I start a new round."",""How much does it cost to observe each hidden value?"",""How many hidden values am I allowed to observe in each round?"",""How is your bonus determined?"",""What does the feedback teach you?""]","[""4"",""True"",""$2.80"",""As many or as few as I wish"",""5% of my score on a random round"",""All of the above.""]",39430,217385,survey-multi-choice,A13I8ASC3JQ04P,36V4Q8R5ZK0VLP5HH9Z4MK0FTHDMQ9,4
73,"[True, True, True, True, True, True]","[""How many flights are there per round?"",""True or false: The hidden values will change each time I start a new round."",""How much does it cost to observe each hidden value?"",""How many hidden values am I allowed to observe in each round?"",""How is your bonus determined?"",""What does the feedback teach you?""]","[""3"",""True"",""$2.80"",""As many or as few as I wish"",""5% of my score on a random round"",""All of the above.""]",14082,250680,survey-multi-choice,A13I8ASC3JQ04P,36V4Q8R5ZK0VLP5HH9Z4MK0FTHDMQ9,4
84,"[False, True, True, True, True, True]","[""How many flights are there per round?"",""True or false: The hidden values will change each time I start a new round."",""How much does it cost to observe each hidden value?"",""How many hidden values am I allowed to observe in each round?"",""How is your bonus determined?"",""What does the feedback teach you?""]","[""2"",""True"",""$2.80"",""As many or as few as I wish"",""5% of my score on a random round"",""All of the above.""]",305231,582651,survey-multi-choice,A13WFFPE9L1QAB,3G0WWMR1UVK137QHTAE4ZZPFY7PNQC,5
86,"[False, True, True, True, True, False]","[""How many flights are there per round?"",""True or false: The hidden values will change each time I start a new round."",""How much does it cost to observe each hidden value?"",""How many hidden values am I allowed to observe in each round?"",""How is your bonus determined?"",""What does the feedback teach you?""]","[""2"",""True"",""$2.80"",""As many or as few as I wish"",""5% of my score on a random round"",""Whether I chose the move that was best according to the information I had.""]",166947,762819,survey-multi-choice,A13WFFPE9L1QAB,3G0WWMR1UVK137QHTAE4ZZPFY7PNQC,5
88,"[False, True, True, True, False, True]","[""How many flights are there per round?"",""True or false: The hidden values will change each time I start a new round."",""How much does it cost to observe each hidden value?"",""How many hidden values am I allowed to observe in each round?"",""How is your bonus determined?"",""What does the feedback teach you?""]","[""2"",""True"",""$2.80"",""As many or as few as I wish"",""5% of my best score on any round"",""All of the above.""]",53509,864459,survey-multi-choice,A13WFFPE9L1QAB,3G0WWMR1UVK137QHTAE4ZZPFY7PNQC,5
90,"[False, True, True, True, True, False]","[""How many flights are there per round?"",""True or false: The hidden values will change each time I start a new round."",""How much does it cost to observe each hidden value?"",""How many hidden values am I allowed to observe in each round?"",""How is your bonus determined?"",""What does the feedback teach you?""]","[""2"",""True"",""$2.80"",""As many or as few as I wish"",""5% of my score on a random round"",""The length of the day is based on how much more money I could have earned by planning and deciding better.""]",45559,920595,survey-multi-choice,A13WFFPE9L1QAB,3G0WWMR1UVK137QHTAE4ZZPFY7PNQC,5
92,"[False, True, True, True, True, True]","[""How many flights are there per round?"",""True or false: The hidden values will change each time I start a new round."",""How much does it cost to observe each hidden value?"",""How many hidden values am I allowed to observe in each round?"",""How is your bonus determined?"",""What does the feedback teach you?""]","[""2"",""True"",""$2.80"",""As many or as few as I wish"",""5% of my score on a random round"",""All of the above.""]",39813,976799,survey-multi-choice,A13WFFPE9L1QAB,3G0WWMR1UVK137QHTAE4ZZPFY7PNQC,5
94,"[False, True, True, True, True, False]","[""How many flights are there per round?"",""True or false: The hidden values will change each time I start a new round."",""How much does it cost to observe each hidden value?"",""How many hidden values am I allowed to observe in each round?"",""How is your bonus determined?"",""What does the feedback teach you?""]","[""2"",""True"",""$2.80"",""As many or as few as I wish"",""5% of my score on a random round"",""Whether I observed the rewards of relevant locations.""]",27847,1019094,survey-multi-choice,A13WFFPE9L1QAB,3G0WWMR1UVK137QHTAE4ZZPFY7PNQC,5
96,"[False, True, True, True, False, True]","[""How many flights are there per round?"",""True or false: The hidden values will change each time I start a new round."",""How much does it cost to observe each hidden value?"",""How many hidden values am I allowed to observe in each round?"",""How is your bonus determined?"",""What does the feedback teach you?""]","[""2"",""True"",""$2.80"",""As many or as few as I wish"",""5% of my best score on any round"",""All of the above.""]",51916,1139950,survey-multi-choice,A13WFFPE9L1QAB,3G0WWMR1UVK137QHTAE4ZZPFY7PNQC,5
98,"[False, True, True, True, True, False]","[""How many flights are there per round?"",""True or false: The hidden values will change each time I start a new round."",""How much does it cost to observe each hidden value?"",""How many hidden values am I allowed to observe in each round?"",""How is your bonus determined?"",""What does the feedback teach you?""]","[""2"",""True"",""$2.80"",""As many or as few as I wish"",""5% of my score on a random round"",""Whether I chose the move that was best according to the information I had.""]",57666,1231078,survey-multi-choice,A13WFFPE9L1QAB,3G0WWMR1UVK137QHTAE4ZZPFY7PNQC,5
100,"[True, True, True, True, True, True]","[""How many flights are there per round?"",""True or false: The hidden values will change each time I start a new round."",""How much does it cost to observe each hidden value?"",""How many hidden values am I allowed to observe in each round?"",""How is your bonus determined?"",""What does the feedback teach you?""]","[""3"",""True"",""$2.80"",""As many or as few as I wish"",""5% of my score on a random round"",""All of the above.""]",20504,1264894,survey-multi-choice,A13WFFPE9L1QAB,3G0WWMR1UVK137QHTAE4ZZPFY7PNQC,5
111,"[False, True, True, True, True, True]","[""How many flights are there per round?"",""True or false: The hidden values will change each time I start a new round."",""How much does it cost to observe each hidden value?"",""How many hidden values am I allowed to observe in each round?"",""How is your bonus determined?"",""What does the feedback teach you?""]","[""1"",""True"",""$1.60"",""As many or as few as I wish"",""5% of my score on a random round"",""All of the above.""]",117810,313269,survey-multi-choice,A14VY6QXKBLC0D,32M8BPYGATMICHLCTYW00DPW6LMGIU,6
113,"[True, True, True, True, True, True]","[""How many flights are there per round?"",""True or false: The hidden values will change each time I start a new round."",""How much does it cost to observe each hidden value?"",""How many hidden values am I allowed to observe in each round?"",""How is your bonus determined?"",""What does the feedback teach you?""]","[""3"",""True"",""$1.60"",""As many or as few as I wish"",""5% of my score on a random round"",""All of the above.""]",70342,419031,survey-multi-choice,A14VY6QXKBLC0D,32M8BPYGATMICHLCTYW00DPW6LMGIU,6
124,"[False, True, True, True, True]","[""How many flights are there per round?"",""True or false: The hidden values will change each time I start a new round."",""How much does it cost to observe each hidden value?"",""How many hidden values am I allowed to observe in each round?"",""How is your bonus determined?""]","[""2"",""True"",""$1.60"",""As many or as few as I wish"",""5% of my score on a random round""]",14993,191319,survey-multi-choice,A17PAQSQ74L915,3ERET4BTVM9U32OSFVB2LCIMUCF9K6,7
126,"[False, True, True, True, True]","[""How many flights are there per round?"",""True or false: The hidden values will change each time I start a new round."",""How much does it cost to observe each hidden value?"",""How many hidden values am I allowed to observe in each round?"",""How is your bonus determined?""]","[""2"",""True"",""$1.60"",""As many or as few as I wish"",""5% of my score on a random round""]",145032,390318,survey-multi-choice,A17PAQSQ74L915,3ERET4BTVM9U32OSFVB2LCIMUCF9K6,7
128,"[True, True, True, True, True]","[""How many flights are there per round?"",""True or false: The hidden values will change each time I start a new round."",""How much does it cost to observe each hidden value?"",""How many hidden values am I allowed to observe in each round?"",""How is your bonus determined?""]","[""3"",""True"",""$1.60"",""As many or as few as I wish"",""5% of my score on a random round""]",13263,437989,survey-multi-choice,A17PAQSQ74L915,3ERET4BTVM9U32OSFVB2LCIMUCF9K6,7
139,"[True, True, True, True, True]","[""How many flights are there per round?"",""True or false: The hidden values will change each time I start a new round."",""How much does it cost to observe each hidden value?"",""How many hidden values am I allowed to observe in each round?"",""How is your bonus determined?""]","[""3"",""True"",""$2.80"",""As many or as few as I wish"",""5% of my score on a random round""]",6660,15783,survey-multi-choice,A1C6NTK19FBQO0,3TY7ZAOG5FKC780FFZS9S1HTR8LK05,8
150,"[False, True, True, True, False, True]","[""How many flights are there per round?"",""True or false: The hidden values will change each time I start a new round."",""How much does it cost to observe each hidden value?"",""How many hidden values am I allowed to observe in each round?"",""How is your bonus determined?"",""What does the feedback teach you?""]","[""4"",""True"",""$2.80"",""As many or as few as I wish"",""10% of my total score on all rounds"",""All of the above.""]",28751,55233,survey-multi-choice,A1DJBDVXF6Z1KK,3TXMY6UCAEOIC3TQ4K5QJOV3Z3ACQI,9
152,"[False, True, True, True, True, False]","[""How many flights are there per round?"",""True or false: The hidden values will change each time I start a new round."",""How much does it cost to observe each hidden value?"",""How many hidden values am I allowed to observe in each round?"",""How is your bonus determined?"",""What does the feedback teach you?""]","[""2"",""True"",""$2.80"",""As many or as few as I wish"",""5% of my score on a random round"",""Whether I observed the rewards of relevant locations.""]",27478,139332,survey-multi-choice,A1DJBDVXF6Z1KK,3TXMY6UCAEOIC3TQ4K5QJOV3Z3ACQI,9
154,"[False, True, True, True, True, True]","[""How many flights are there per round?"",""True or false: The hidden values will change each time I start a new round."",""How much does it cost to observe each hidden value?"",""How many hidden values am I allowed to observe in each round?"",""How is your bonus determined?"",""What does the feedback teach you?""]","[""2"",""True"",""$2.80"",""As many or as few as I wish"",""5% of my score on a random round"",""All of the above.""]",14723,198902,survey-multi-choice,A1DJBDVXF6Z1KK,3TXMY6UCAEOIC3TQ4K5QJOV3Z3ACQI,9
156,"[False, True, True, True, True, False]","[""How many flights are there per round?"",""True or false: The hidden values will change each time I start a new round."",""How much does it cost to observe each hidden value?"",""How many hidden values am I allowed to observe in each round?"",""How is your bonus determined?"",""What does the feedback teach you?""]","[""2"",""True"",""$2.80"",""As many or as few as I wish"",""5% of my score on a random round"",""Whether I chose the move that was best according to the information I had.""]",40602,297243,survey-multi-choice,A1DJBDVXF6Z1KK,3TXMY6UCAEOIC3TQ4K5QJOV3Z3ACQI,9
158,"[False, True, True, True, True, True]","[""How many flights are there per round?"",""True or false: The hidden values will change each time I start a new round."",""How much does it cost to observe each hidden value?"",""How many hidden values am I allowed to observe in each round?"",""How is your bonus determined?"",""What does the feedback teach you?""]","[""1"",""True"",""$2.80"",""As many or as few as I wish"",""5% of my score on a random round"",""All of the above.""]",17138,405297,survey-multi-choice,A1DJBDVXF6Z1KK,3TXMY6UCAEOIC3TQ4K5QJOV3Z3ACQI,9
160,"[True, True, True, True, True, True]","[""How many flights are there per round?"",""True or false: The hidden values will change each time I start a new round."",""How much does it cost to observe each hidden value?"",""How many hidden values am I allowed to observe in each round?"",""How is your bonus determined?"",""What does the feedback teach you?""]","[""3"",""True"",""$2.80"",""As many or as few as I wish"",""5% of my score on a random round"",""All of the above.""]",10702,444721,survey-multi-choice,A1DJBDVXF6Z1KK,3TXMY6UCAEOIC3TQ4K5QJOV3Z3ACQI,9
171,"[False, False, True, True, True]","[""How many flights are there per round?"",""True or false: The hidden values will change each time I start a new round."",""How much does it cost to observe each hidden value?"",""How many hidden values am I allowed to observe in each round?"",""How is your bonus determined?""]","[""1"",""False"",""$1.60"",""As many or as few as I wish"",""5% of my score on a random round""]",37604,130926,survey-multi-choice,A1DQ4MAROY4HIJ,3EICBYG644W1QGPD9ULHMNJHL8JCJS,10
173,"[False, False, True, False, True]","[""How many flights are there per round?"",""True or false: The hidden values will change each time I start a new round."",""How much does it cost to observe each hidden value?"",""How many hidden values am I allowed to observe in each round?"",""How is your bonus determined?""]","[""1"",""False"",""$1.60"",""At most 1"",""5% of my score on a random round""]",31785,205203,survey-multi-choice,A1DQ4MAROY4HIJ,3EICBYG644W1QGPD9ULHMNJHL8JCJS,10
175,"[False, True, True, False, False]","[""How many flights are there per round?"",""True or false: The hidden values will change each time I start a new round."",""How much does it cost to observe each hidden value?"",""How many hidden values am I allowed to observe in each round?"",""How is your bonus determined?""]","[""1"",""True"",""$1.60"",""At most 1"",""5% of my best score on any round""]",17258,247482,survey-multi-choice,A1DQ4MAROY4HIJ,3EICBYG644W1QGPD9ULHMNJHL8JCJS,10
177,"[False, True, True, True, True]","[""How many flights are there per round?"",""True or false: The hidden values will change each time I start a new round."",""How much does it cost to observe each hidden value?"",""How many hidden values am I allowed to observe in each round?"",""How is your bonus determined?""]","[""1"",""True"",""$1.60"",""As many or as few as I wish"",""5% of my score on a random round""]",10907,303049,survey-multi-choice,A1DQ4MAROY4HIJ,3EICBYG644W1QGPD9ULHMNJHL8JCJS,10
179,"[True, True, True, True, True]","[""How many flights are there per round?"",""True or false: The hidden values will change each time I start a new round."",""How much does it cost to observe each hidden value?"",""How many hidden values am I allowed to observe in each round?"",""How is your bonus determined?""]","[""3"",""True"",""$1.60"",""As many or as few as I wish"",""5% of my score on a random round""]",13825,325339,survey-multi-choice,A1DQ4MAROY4HIJ,3EICBYG644W1QGPD9ULHMNJHL8JCJS,10
190,"[False, True, True, True, True, True]","[""How many flights are there per round?"",""True or false: The hidden values will change each time I start a new round."",""How much does it cost to observe each hidden value?"",""How many hidden values am I allowed to observe in each round?"",""How is your bonus determined?"",""What does the feedback teach you?""]","[""1"",""True"",""$1.60"",""As many or as few as I wish"",""5% of my score on a random round"",""All of the above.""]",28536,126379,survey-multi-choice,A1EKUJGMFDI1RZ,34HJIJKLP5W7M7CSX4TI6DINOI94VS,11
192,"[False, True, True, True, True, False]","[""How many flights are there per round?"",""True or false: The hidden values will change each time I start a new round."",""How much does it cost to observe each hidden value?"",""How many hidden values am I allowed to observe in each round?"",""How is your bonus determined?"",""What does the feedback teach you?""]","[""1"",""True"",""$1.60"",""As many or as few as I wish"",""5% of my score on a random round"",""Whether I chose the move that was best according to the information I had.""]",30869,180598,survey-multi-choice,A1EKUJGMFDI1RZ,34HJIJKLP5W7M7CSX4TI6DINOI94VS,11
194,"[False, True, True, True, True, False]","[""How many flights are there per round?"",""True or false: The hidden values will change each time I start a new round."",""How much does it cost to observe each hidden value?"",""How many hidden values am I allowed to observe in each round?"",""How is your bonus determined?"",""What does the feedback teach you?""]","[""1"",""True"",""$1.60"",""As many or as few as I wish"",""5% of my score on a random round"",""Whether I chose the move that was best according to the information I had.""]",31106,268853,survey-multi-choice,A1EKUJGMFDI1RZ,34HJIJKLP5W7M7CSX4TI6DINOI94VS,11
196,"[True, True, True, True, True, True]","[""How many flights are there per round?"",""True or false: The hidden values will change each time I start a new round."",""How much does it cost to observe each hidden value?"",""How many hidden values am I allowed to observe in each round?"",""How is your bonus determined?"",""What does the feedback teach you?""]","[""3"",""True"",""$1.60"",""As many or as few as I wish"",""5% of my score on a random round"",""All of the above.""]",8552,337555,survey-multi-choice,A1EKUJGMFDI1RZ,34HJIJKLP5W7M7CSX4TI6DINOI94VS,11
207,"[True, True, True, True, True, False]","[""How many flights are there per round?"",""True or false: The hidden values will change each time I start a new round."",""How much does it cost to observe each hidden value?"",""How many hidden values am I allowed to observe in each round?"",""How is your bonus determined?"",""What does the feedback teach you?""]","[""3"",""True"",""$1.60"",""As many or as few as I wish"",""5% of my score on a random round"",""Whether I observed the rewards of relevant locations.""]",144634,158958,survey-multi-choice,A1HFRP0CYB6IGF,3JMSRU9HQIUPE99LMA5VFZUE172EV7,12
209,"[True, True, True, True, True, True]","[""How many flights are there per round?"",""True or false: The hidden values will change each time I start a new round."",""How much does it cost to observe each hidden value?"",""How many hidden values am I allowed to observe in each round?"",""How is your bonus determined?"",""What does the feedback teach you?""]","[""3"",""True"",""$1.60"",""As many or as few as I wish"",""5% of my score on a random round"",""All of the above.""]",12928,180145,survey-multi-choice,A1HFRP0CYB6IGF,3JMSRU9HQIUPE99LMA5VFZUE172EV7,12
220,"[False, True, True, True, True]","[""How many flights are there per round?"",""True or false: The hidden values will change each time I start a new round."",""How much does it cost to observe each hidden value?"",""How many hidden values am I allowed to observe in each round?"",""How is your bonus determined?""]","[""1"",""True"",""$2.80"",""As many or as few as I wish"",""5% of my score on a random round""]",49083,213964,survey-multi-choice,A1HGSSITI7GRQS,33PPUNGG385VWXJ09DEYZC6T47YRZX,13
222,"[False, True, True, True, True]","[""How many flights are there per round?"",""True or false: The hidden values will change each time I start a new round."",""How much does it cost to observe each hidden value?"",""How many hidden values am I allowed to observe in each round?"",""How is your bonus determined?""]","[""4"",""True"",""$2.80"",""As many or as few as I wish"",""5% of my score on a random round""]",20952,351172,survey-multi-choice,A1HGSSITI7GRQS,33PPUNGG385VWXJ09DEYZC6T47YRZX,13
224,"[False, True, True, True, True]","[""How many flights are there per round?"",""True or false: The hidden values will change each time I start a new round."",""How much does it cost to observe each hidden value?"",""How many hidden values am I allowed to observe in each round?"",""How is your bonus determined?""]","[""2"",""True"",""$2.80"",""As many or as few as I wish"",""5% of my score on a random round""]",11033,370427,survey-multi-choice,A1HGSSITI7GRQS,33PPUNGG385VWXJ09DEYZC6T47YRZX,13
226,"[True, True, True, True, True]","[""How many flights are there per round?"",""True or false: The hidden values will change each time I start a new round."",""How much does it cost to observe each hidden value?"",""How many hidden values am I allowed to observe in each round?"",""How is your bonus determined?""]","[""3"",""True"",""$2.80"",""As many or as few as I wish"",""5% of my score on a random round""]",14004,392294,survey-multi-choice,A1HGSSITI7GRQS,33PPUNGG385VWXJ09DEYZC6T47YRZX,13
237,"[True, True, True, True, True, False]","[""How many flights are there per round?"",""True or false: The hidden values will change each time I start a new round."",""How much does it cost to observe each hidden value?"",""How many hidden values am I allowed to observe in each round?"",""How is your bonus determined?"",""What does the feedback teach you?""]","[""3"",""True"",""$0.01"",""As many or as few as I wish"",""5% of my score on a random round"",""Whether I chose the move that was best according to the information I had.""]",23389,119855,survey-multi-choice,A1KVHMCUC5E0MS,3H8DHMCCW9B66S19RBG4781CLXVDKS,14
239,"[True, True, True, True, True, True]","[""How many flights are there per round?"",""True or false: The hidden values will change each time I start a new round."",""How much does it cost to observe each hidden value?"",""How many hidden values am I allowed to observe in each round?"",""How is your bonus determined?"",""What does the feedback teach you?""]","[""3"",""True"",""$0.01"",""As many or as few as I wish"",""5% of my score on a random round"",""All of the above.""]",32267,193897,survey-multi-choice,A1KVHMCUC5E0MS,3H8DHMCCW9B66S19RBG4781CLXVDKS,14
250,"[False, True, True, True, True, True]","[""How many flights are there per round?"",""True or false: The hidden values will change each time I start a new round."",""How much does it cost to observe each hidden value?"",""How many hidden values am I allowed to observe in each round?"",""How is your bonus determined?"",""What does the feedback teach you?""]","[""1"",""True"",""$0.01"",""As many or as few as I wish"",""5% of my score on a random round"",""All of the above.""]",63853,244950,survey-multi-choice,A1LIB650YAB82E,3UNH76FOCS54URW38JGYZ63HSQWYMQ,15
252,"[False, True, True, True, True, False]","[""How many flights are there per round?"",""True or false: The hidden values will change each time I start a new round."",""How much does it cost to observe each hidden value?"",""How many hidden values am I allowed to observe in each round?"",""How is your bonus determined?"",""What does the feedback teach you?""]","[""1"",""True"",""$0.01"",""As many or as few as I wish"",""5% of my score on a random round"",""Whether I observed the rewards of relevant locations.""]",32140,373743,survey-multi-choice,A1LIB650YAB82E,3UNH76FOCS54URW38JGYZ63HSQWYMQ,15
254,"[False, True, True, True, True, False]","[""How many flights are there per round?"",""True or false: The hidden values will change each time I start a new round."",""How much does it cost to observe each hidden value?"",""How many hidden values am I allowed to observe in each round?"",""How is your bonus determined?"",""What does the feedback teach you?""]","[""1"",""True"",""$0.01"",""As many or as few as I wish"",""5% of my score on a random round"",""Whether I chose the move that was best according to the information I had.""]",68918,464656,survey-multi-choice,A1LIB650YAB82E,3UNH76FOCS54URW38JGYZ63HSQWYMQ,15
256,"[True, True, True, True, True, False]","[""How many flights are there per round?"",""True or false: The hidden values will change each time I start a new round."",""How much does it cost to observe each hidden value?"",""How many hidden values am I allowed to observe in each round?"",""How is your bonus determined?"",""What does the feedback teach you?""]","[""3"",""True"",""$0.01"",""As many or as few as I wish"",""5% of my score on a random round"",""Whether I chose the move that was best according to the information I had.""]",42092,623856,survey-multi-choice,A1LIB650YAB82E,3UNH76FOCS54URW38JGYZ63HSQWYMQ,15
258,"[False, True, True, True, True, False]","[""How many flights are there per round?"",""True or false: The hidden values will change each time I start a new round."",""How much does it cost to observe each hidden value?"",""How many hidden values am I allowed to observe in each round?"",""How is your bonus determined?"",""What does the feedback teach you?""]","[""1"",""True"",""$0.01"",""As many or as few as I wish"",""5% of my score on a random round"",""Whether I chose the move that was best according to the information I had.""]",49310,691090,survey-multi-choice,A1LIB650YAB82E,3UNH76FOCS54URW38JGYZ63HSQWYMQ,15
260,"[False, True, True, True, True, False]","[""How many flights are there per round?"",""True or false: The hidden values will change each time I start a new round."",""How much does it cost to observe each hidden value?"",""How many hidden values am I allowed to observe in each round?"",""How is your bonus determined?"",""What does the feedback teach you?""]","[""1"",""True"",""$0.01"",""As many or as few as I wish"",""5% of my score on a random round"",""Whether I chose the move that was best according to the information I had.""]",26417,739683,survey-multi-choice,A1LIB650YAB82E,3UNH76FOCS54URW38JGYZ63HSQWYMQ,15
262,"[False, True, True, True, True, False]","[""How many flights are there per round?"",""True or false: The hidden values will change each time I start a new round."",""How much does it cost to observe each hidden value?"",""How many hidden values am I allowed to observe in each round?"",""How is your bonus determined?"",""What does the feedback teach you?""]","[""2"",""True"",""$0.01"",""As many or as few as I wish"",""5% of my score on a random round"",""Whether I chose the move that was best according to the information I had.""]",53023,813379,survey-multi-choice,A1LIB650YAB82E,3UNH76FOCS54URW38JGYZ63HSQWYMQ,15
264,"[True, True, True, True, True, False]","[""How many flights are there per round?"",""True or false: The hidden values will change each time I start a new round."",""How much does it cost to observe each hidden value?"",""How many hidden values am I allowed to observe in each round?"",""How is your bonus determined?"",""What does the feedback teach you?""]","[""3"",""True"",""$0.01"",""As many or as few as I wish"",""5% of my score on a random round"",""Whether I chose the move that was best according to the information I had.""]",27048,856728,survey-multi-choice,A1LIB650YAB82E,3UNH76FOCS54URW38JGYZ63HSQWYMQ,15
266,"[True, True, True, True, True, True]","[""How many flights are there per round?"",""True or false: The hidden values will change each time I start a new round."",""How much does it cost to observe each hidden value?"",""How many hidden values am I allowed to observe in each round?"",""How is your bonus determined?"",""What does the feedback teach you?""]","[""3"",""True"",""$0.01"",""As many or as few as I wish"",""5% of my score on a random round"",""All of the above.""]",38806,916245,survey-multi-choice,A1LIB650YAB82E,3UNH76FOCS54URW38JGYZ63HSQWYMQ,15
277,"[False, True, True, False, False, False]","[""How many flights are there per round?"",""True or false: The hidden values will change each time I start a new round."",""How much does it cost to observe each hidden value?"",""How many hidden values am I allowed to observe in each round?"",""How is your bonus determined?"",""What does the feedback teach you?""]","[""2"",""True"",""$1.60"",""At most 5"",""5% of my best score on any round"",""Whether I chose the move that was best according to the information I had.""]",10163,19265,survey-multi-choice,A1M0JDU08KRH7X,3A4TN5196KI5ZAUNLUIWAA328GEHCR,16
279,"[False, True, True, True, True, False]","[""How many flights are there per round?"",""True or false: The hidden values will change each time I start a new round."",""How much does it cost to observe each hidden value?"",""How many hidden values am I allowed to observe in each round?"",""How is your bonus determined?"",""What does the feedback teach you?""]","[""1"",""True"",""$1.60"",""As many or as few as I wish"",""5% of my score on a random round"",""Whether I chose the move that was best according to the information I had.""]",20826,75673,survey-multi-choice,A1M0JDU08KRH7X,3A4TN5196KI5ZAUNLUIWAA328GEHCR,16
281,"[False, True, True, True, True, True]","[""How many flights are there per round?"",""True or false: The hidden values will change each time I start a new round."",""How much does it cost to observe each hidden value?"",""How many hidden values am I allowed to observe in each round?"",""How is your bonus determined?"",""What does the feedback teach you?""]","[""1"",""True"",""$1.60"",""As many or as few as I wish"",""5% of my score on a random round"",""All of the above.""]",9336,109407,survey-multi-choice,A1M0JDU08KRH7X,3A4TN5196KI5ZAUNLUIWAA328GEHCR,16
283,"[False, True, True, True, True, False]","[""How many flights are there per round?"",""True or false: The hidden values will change each time I start a new round."",""How much does it cost to observe each hidden value?"",""How many hidden values am I allowed to observe in each round?"",""How is your bonus determined?"",""What does the feedback teach you?""]","[""1"",""True"",""$1.60"",""As many or as few as I wish"",""5% of my score on a random round"",""Whether I observed the rewards of relevant locations.""]",17810,167047,survey-multi-choice,A1M0JDU08KRH7X,3A4TN5196KI5ZAUNLUIWAA328GEHCR,16
285,"[False, False, True, True, True, True]","[""How many flights are there per round?"",""True or false: The hidden values will change each time I start a new round."",""How much does it cost to observe each hidden value?"",""How many hidden values am I allowed to observe in each round?"",""How is your bonus determined?"",""What does the feedback teach you?""]","[""1"",""False"",""$1.60"",""As many or as few as I wish"",""5% of my score on a random round"",""All of the above.""]",18760,229766,survey-multi-choice,A1M0JDU08KRH7X,3A4TN5196KI5ZAUNLUIWAA328GEHCR,16
287,"[False, True, True, True, True, True]","[""How many flights are there per round?"",""True or false: The hidden values will change each time I start a new round."",""How much does it cost to observe each hidden value?"",""How many hidden values am I allowed to observe in each round?"",""How is your bonus determined?"",""What does the feedback teach you?""]","[""2"",""True"",""$1.60"",""As many or as few as I wish"",""5% of my score on a random round"",""All of the above.""]",8333,247187,survey-multi-choice,A1M0JDU08KRH7X,3A4TN5196KI5ZAUNLUIWAA328GEHCR,16
289,"[False, True, True, True, True, False]","[""How many flights are there per round?"",""True or false: The hidden values will change each time I start a new round."",""How much does it cost to observe each hidden value?"",""How many hidden values am I allowed to observe in each round?"",""How is your bonus determined?"",""What does the feedback teach you?""]","[""2"",""True"",""$1.60"",""As many or as few as I wish"",""5% of my score on a random round"",""Whether I observed the rewards of relevant locations.""]",23859,355057,survey-multi-choice,A1M0JDU08KRH7X,3A4TN5196KI5ZAUNLUIWAA328GEHCR,16
291,"[False, True, True, True, True, True]","[""How many flights are there per round?"",""True or false: The hidden values will change each time I start a new round."",""How much does it cost to observe each hidden value?"",""How many hidden values am I allowed to observe in each round?"",""How is your bonus determined?"",""What does the feedback teach you?""]","[""2"",""True"",""$1.60"",""As many or as few as I wish"",""5% of my score on a random round"",""All of the above.""]",6582,371828,survey-multi-choice,A1M0JDU08KRH7X,3A4TN5196KI5ZAUNLUIWAA328GEHCR,16
293,"[False, True, True, True, True, False]","[""How many flights are there per round?"",""True or false: The hidden values will change each time I start a new round."",""How much does it cost to observe each hidden value?"",""How many hidden values am I allowed to observe in each round?"",""How is your bonus determined?"",""What does the feedback teach you?""]","[""2"",""True"",""$1.60"",""As many or as few as I wish"",""5% of my score on a random round"",""Whether I chose the move that was best according to the information I had.""]",13107,392753,survey-multi-choice,A1M0JDU08KRH7X,3A4TN5196KI5ZAUNLUIWAA328GEHCR,16
295,"[False, True, True, True, True, False]","[""How many flights are there per round?"",""True or false: The hidden values will change each time I start a new round."",""How much does it cost to observe each hidden value?"",""How many hidden values am I allowed to observe in each round?"",""How is your bonus determined?"",""What does the feedback teach you?""]","[""1"",""True"",""$1.60"",""As many or as few as I wish"",""5% of my score on a random round"",""Whether I observed the rewards of relevant locations.""]",9559,431788,survey-multi-choice,A1M0JDU08KRH7X,3A4TN5196KI5ZAUNLUIWAA328GEHCR,16
297,"[False, True, True, True, True, False]","[""How many flights are there per round?"",""True or false: The hidden values will change each time I start a new round."",""How much does it cost to observe each hidden value?"",""How many hidden values am I allowed to observe in each round?"",""How is your bonus determined?"",""What does the feedback teach you?""]","[""1"",""True"",""$1.60"",""As many or as few as I wish"",""5% of my score on a random round"",""Whether I chose the move that was best according to the information I had.""]",27744,552282,survey-multi-choice,A1M0JDU08KRH7X,3A4TN5196KI5ZAUNLUIWAA328GEHCR,16
299,"[False, True, True, True, True, False]","[""How many flights are there per round?"",""True or false: The hidden values will change each time I start a new round."",""How much does it cost to observe each hidden value?"",""How many hidden values am I allowed to observe in each round?"",""How is your bonus determined?"",""What does the feedback teach you?""]","[""2"",""True"",""$1.60"",""As many or as few as I wish"",""5% of my score on a random round"",""Whether I chose the move that was best according to the information I had.""]",20763,595703,survey-multi-choice,A1M0JDU08KRH7X,3A4TN5196KI5ZAUNLUIWAA328GEHCR,16
301,"[False, True, True, True, True, False]","[""How many flights are there per round?"",""True or false: The hidden values will change each time I start a new round."",""How much does it cost to observe each hidden value?"",""How many hidden values am I allowed to observe in each round?"",""How is your bonus determined?"",""What does the feedback teach you?""]","[""4"",""True"",""$1.60"",""As many or as few as I wish"",""5% of my score on a random round"",""Whether I chose the move that was best according to the information I had.""]",6872,627171,survey-multi-choice,A1M0JDU08KRH7X,3A4TN5196KI5ZAUNLUIWAA328GEHCR,16
303,"[False, True, True, True, True, False]","[""How many flights are there per round?"",""True or false: The hidden values will change each time I start a new round."",""How much does it cost to observe each hidden value?"",""How many hidden values am I allowed to observe in each round?"",""How is your bonus determined?"",""What does the feedback teach you?""]","[""2"",""True"",""$1.60"",""As many or as few as I wish"",""5% of my score on a random round"",""Whether I chose the move that was best according to the information I had.""]",8579,641152,survey-multi-choice,A1M0JDU08KRH7X,3A4TN5196KI5ZAUNLUIWAA328GEHCR,16
305,"[True, True, True, True, True, False]","[""How many flights are there per round?"",""True or false: The hidden values will change each time I start a new round."",""How much does it cost to observe each hidden value?"",""How many hidden values am I allowed to observe in each round?"",""How is your bonus determined?"",""What does the feedback teach you?""]","[""3"",""True"",""$1.60"",""As many or as few as I wish"",""5% of my score on a random round"",""Whether I chose the move that was best according to the information I had.""]",6032,656135,survey-multi-choice,A1M0JDU08KRH7X,3A4TN5196KI5ZAUNLUIWAA328GEHCR,16
307,"[False, True, True, True, True, True]","[""How many flights are there per round?"",""True or false: The hidden values will change each time I start a new round."",""How much does it cost to observe each hidden value?"",""How many hidden values am I allowed to observe in each round?"",""How is your bonus determined?"",""What does the feedback teach you?""]","[""1"",""True"",""$1.60"",""As many or as few as I wish"",""5% of my score on a random round"",""All of the above.""]",12854,681600,survey-multi-choice,A1M0JDU08KRH7X,3A4TN5196KI5ZAUNLUIWAA328GEHCR,16
309,"[False, True, True, True, True, True]","[""How many flights are there per round?"",""True or false: The hidden values will change each time I start a new round."",""How much does it cost to observe each hidden value?"",""How many hidden values am I allowed to observe in each round?"",""How is your bonus determined?"",""What does the feedback teach you?""]","[""2"",""True"",""$1.60"",""As many or as few as I wish"",""5% of my score on a random round"",""All of the above.""]",7147,692471,survey-multi-choice,A1M0JDU08KRH7X,3A4TN5196KI5ZAUNLUIWAA328GEHCR,16
311,"[True, True, True, True, True, True]","[""How many flights are there per round?"",""True or false: The hidden values will change each time I start a new round."",""How much does it cost to observe each hidden value?"",""How many hidden values am I allowed to observe in each round?"",""How is your bonus determined?"",""What does the feedback teach you?""]","[""3"",""True"",""$1.60"",""As many or as few as I wish"",""5% of my score on a random round"",""All of the above.""]",5882,701070,survey-multi-choice,A1M0JDU08KRH7X,3A4TN5196KI5ZAUNLUIWAA328GEHCR,16
322,"[True, True, True, True, True, True]","[""How many flights are there per round?"",""True or false: The hidden values will change each time I start a new round."",""How much does it cost to observe each hidden value?"",""How many hidden values am I allowed to observe in each round?"",""How is your bonus determined?"",""What does the feedback teach you?""]","[""3"",""True"",""$1.60"",""As many or as few as I wish"",""5% of my score on a random round"",""All of the above.""]",73001,131032,survey-multi-choice,A1QJ2VPPZG16EG,3X4MXAO0BGOR22EVYQUR08CBN5URW7,17
333,"[False, True, True, True, True, True]","[""How many flights are there per round?"",""True or false: The hidden values will change each time I start a new round."",""How much does it cost to observe each hidden value?"",""How many hidden values am I allowed to observe in each round?"",""How is your bonus determined?"",""What does the feedback teach you?""]","[""1"",""True"",""$1.60"",""As many or as few as I wish"",""5% of my score on a random round"",""All of the above.""]",30626,85677,survey-multi-choice,A1U37XNO6J1R9G,3OXV7EAXLEQ1PLENWIGRKGAITPN36G,18
335,"[False, True, True, True, True, False]","[""How many flights are there per round?"",""True or false: The hidden values will change each time I start a new round."",""How much does it cost to observe each hidden value?"",""How many hidden values am I allowed to observe in each round?"",""How is your bonus determined?"",""What does the feedback teach you?""]","[""1"",""True"",""$1.60"",""As many or as few as I wish"",""5% of my score on a random round"",""Whether I observed the rewards of relevant locations.""]",23359,166599,survey-multi-choice,A1U37XNO6J1R9G,3OXV7EAXLEQ1PLENWIGRKGAITPN36G,18
337,"[False, True, True, True, True, True]","[""How many flights are there per round?"",""True or false: The hidden values will change each time I start a new round."",""How much does it cost to observe each hidden value?"",""How many hidden values am I allowed to observe in each round?"",""How is your bonus determined?"",""What does the feedback teach you?""]","[""4"",""True"",""$1.60"",""As many or as few as I wish"",""5% of my score on a random round"",""All of the above.""]",16955,192293,survey-multi-choice,A1U37XNO6J1R9G,3OXV7EAXLEQ1PLENWIGRKGAITPN36G,18
339,"[False, True, True, True, True, False]","[""How many flights are there per round?"",""True or false: The hidden values will change each time I start a new round."",""How much does it cost to observe each hidden value?"",""How many hidden values am I allowed to observe in each round?"",""How is your bonus determined?"",""What does the feedback teach you?""]","[""1"",""True"",""$1.60"",""As many or as few as I wish"",""5% of my score on a random round"",""Whether I chose the move that was best according to the information I had.""]",25972,247023,survey-multi-choice,A1U37XNO6J1R9G,3OXV7EAXLEQ1PLENWIGRKGAITPN36G,18
341,"[False, True, True, True, True, False]","[""How many flights are there per round?"",""True or false: The hidden values will change each time I start a new round."",""How much does it cost to observe each hidden value?"",""How many hidden values am I allowed to observe in each round?"",""How is your bonus determined?"",""What does the feedback teach you?""]","[""2"",""True"",""$1.60"",""As many or as few as I wish"",""5% of my score on a random round"",""Whether I chose the move that was best according to the information I had.""]",11568,277266,survey-multi-choice,A1U37XNO6J1R9G,3OXV7EAXLEQ1PLENWIGRKGAITPN36G,18
343,"[False, True, True, True, True, True]","[""How many flights are there per round?"",""True or false: The hidden values will change each time I start a new round."",""How much does it cost to observe each hidden value?"",""How many hidden values am I allowed to observe in each round?"",""How is your bonus determined?"",""What does the feedback teach you?""]","[""2"",""True"",""$1.60"",""As many or as few as I wish"",""5% of my score on a random round"",""All of the above.""]",10552,297446,survey-multi-choice,A1U37XNO6J1R9G,3OXV7EAXLEQ1PLENWIGRKGAITPN36G,18
345,"[False, True, True, True, True, False]","[""How many flights are there per round?"",""True or false: The hidden values will change each time I start a new round."",""How much does it cost to observe each hidden value?"",""How many hidden values am I allowed to observe in each round?"",""How is your bonus determined?"",""What does the feedback teach you?""]","[""2"",""True"",""$1.60"",""As many or as few as I wish"",""5% of my score on a random round"",""Whether I observed the rewards of relevant locations.""]",9813,315910,survey-multi-choice,A1U37XNO6J1R9G,3OXV7EAXLEQ1PLENWIGRKGAITPN36G,18
347,"[False, True, True, True, True, False]","[""How many flights are there per round?"",""True or false: The hidden values will change each time I start a new round."",""How much does it cost to observe each hidden value?"",""How many hidden values am I allowed to observe in each round?"",""How is your bonus determined?"",""What does the feedback teach you?""]","[""1"",""True"",""$1.60"",""As many or as few as I wish"",""5% of my score on a random round"",""Whether I chose the move that was best according to the information I had.""]",19426,357903,survey-multi-choice,A1U37XNO6J1R9G,3OXV7EAXLEQ1PLENWIGRKGAITPN36G,18
349,"[False, True, True, True, True, False]","[""How many flights are there per round?"",""True or false: The hidden values will change each time I start a new round."",""How much does it cost to observe each hidden value?"",""How many hidden values am I allowed to observe in each round?"",""How is your bonus determined?"",""What does the feedback teach you?""]","[""1"",""True"",""$1.60"",""As many or as few as I wish"",""5% of my score on a random round"",""Whether I observed the rewards of relevant locations.""]",9882,396112,survey-multi-choice,A1U37XNO6J1R9G,3OXV7EAXLEQ1PLENWIGRKGAITPN36G,18
351,"[False, True, True, True, True, True]","[""How many flights are there per round?"",""True or false: The hidden values will change each time I start a new round."",""How much does it cost to observe each hidden value?"",""How many hidden values am I allowed to observe in each round?"",""How is your bonus determined?"",""What does the feedback teach you?""]","[""1"",""True"",""$1.60"",""As many or as few as I wish"",""5% of my score on a random round"",""All of the above.""]",16360,420588,survey-multi-choice,A1U37XNO6J1R9G,3OXV7EAXLEQ1PLENWIGRKGAITPN36G,18
353,"[False, True, True, True, True, True]","[""How many flights are there per round?"",""True or false: The hidden values will change each time I start a new round."",""How much does it cost to observe each hidden value?"",""How many hidden values am I allowed to observe in each round?"",""How is your bonus determined?"",""What does the feedback teach you?""]","[""1"",""True"",""$1.60"",""As many or as few as I wish"",""5% of my score on a random round"",""All of the above.""]",33082,509086,survey-multi-choice,A1U37XNO6J1R9G,3OXV7EAXLEQ1PLENWIGRKGAITPN36G,18
355,"[False, True, True, True, True, True]","[""How many flights are there per round?"",""True or false: The hidden values will change each time I start a new round."",""How much does it cost to observe each hidden value?"",""How many hidden values am I allowed to observe in each round?"",""How is your bonus determined?"",""What does the feedback teach you?""]","[""4"",""True"",""$1.60"",""As many or as few as I wish"",""5% of my score on a random round"",""All of the above.""]",9322,527880,survey-multi-choice,A1U37XNO6J1R9G,3OXV7EAXLEQ1PLENWIGRKGAITPN36G,18
357,"[True, True, True, True, True, True]","[""How many flights are there per round?"",""True or false: The hidden values will change each time I start a new round."",""How much does it cost to observe each hidden value?"",""How many hidden values am I allowed to observe in each round?"",""How is your bonus determined?"",""What does the feedback teach you?""]","[""3"",""True"",""$1.60"",""As many or as few as I wish"",""5% of my score on a random round"",""All of the above.""]",9822,544019,survey-multi-choice,A1U37XNO6J1R9G,3OXV7EAXLEQ1PLENWIGRKGAITPN36G,18
368,"[True, True, True, True, True, True]","[""How many flights are there per round?"",""True or false: The hidden values will change each time I start a new round."",""How much does it cost to observe each hidden value?"",""How many hidden values am I allowed to observe in each round?"",""How is your bonus determined?"",""What does the feedback teach you?""]","[""3"",""True"",""$1.60"",""As many or as few as I wish"",""5% of my score on a random round"",""All of the above.""]",20529,53640,survey-multi-choice,A1V3FV89RVGASD,39N5ACM9HENVETL8SNGAHT4LOMLP9N,19
379,"[True, True, True, True, True, False]","[""How many flights are there per round?"",""True or false: The hidden values will change each time I start a new round."",""How much does it cost to observe each hidden value?"",""How many hidden values am I allowed to observe in each round?"",""How is your bonus determined?"",""What does the feedback teach you?""]","[""3"",""True"",""$2.80"",""As many or as few as I wish"",""5% of my score on a random round"",""Whether I chose the move that was best according to the information I had.""]",43821,159730,survey-multi-choice,A1X1GFV9H8AGSL,3PJUZCGDJ6GA81MR66EZV79VZCL98N,20
381,"[False, True, True, True, True, False]","[""How many flights are there per round?"",""True or false: The hidden values will change each time I start a new round."",""How much does it cost to observe each hidden value?"",""How many hidden values am I allowed to observe in each round?"",""How is your bonus determined?"",""What does the feedback teach you?""]","[""1"",""True"",""$2.80"",""As many or as few as I wish"",""5% of my score on a random round"",""Whether I observed the rewards of relevant locations.""]",24976,249292,survey-multi-choice,A1X1GFV9H8AGSL,3PJUZCGDJ6GA81MR66EZV79VZCL98N,20
383,"[False, True, True, True, True, False]","[""How many flights are there per round?"",""True or false: The hidden values will change each time I start a new round."",""How much does it cost to observe each hidden value?"",""How many hidden values am I allowed to observe in each round?"",""How is your bonus determined?"",""What does the feedback teach you?""]","[""1"",""True"",""$2.80"",""As many or as few as I wish"",""5% of my score on a random round"",""Whether I observed the rewards of relevant locations.""]",23246,297686,survey-multi-choice,A1X1GFV9H8AGSL,3PJUZCGDJ6GA81MR66EZV79VZCL98N,20
385,"[False, True, True, True, True, True]","[""How many flights are there per round?"",""True or false: The hidden values will change each time I start a new round."",""How much does it cost to observe each hidden value?"",""How many hidden values am I allowed to observe in each round?"",""How is your bonus determined?"",""What does the feedback teach you?""]","[""1"",""True"",""$2.80"",""As many or as few as I wish"",""5% of my score on a random round"",""All of the above.""]",16629,376718,survey-multi-choice,A1X1GFV9H8AGSL,3PJUZCGDJ6GA81MR66EZV79VZCL98N,20
387,"[True, True, True, True, True, True]","[""How many flights are there per round?"",""True or false: The hidden values will change each time I start a new round."",""How much does it cost to observe each hidden value?"",""How many hidden values am I allowed to observe in each round?"",""How is your bonus determined?"",""What does the feedback teach you?""]","[""3"",""True"",""$2.80"",""As many or as few as I wish"",""5% of my score on a random round"",""All of the above.""]",24960,418670,survey-multi-choice,A1X1GFV9H8AGSL,3PJUZCGDJ6GA81MR66EZV79VZCL98N,20
398,"[False, True, True, True, True, True]","[""How many flights are there per round?"",""True or false: The hidden values will change each time I start a new round."",""How much does it cost to observe each hidden value?"",""How many hidden values am I allowed to observe in each round?"",""How is your bonus determined?"",""What does the feedback teach you?""]","[""1"",""True"",""$2.80"",""As many or as few as I wish"",""5% of my score on a random round"",""All of the above.""]",61650,289403,survey-multi-choice,A1XVYOL52UT8T9,3J88R45B2GYLFP36V3MOXWQ3VPDPX7,21
400,"[False, True, True, True, True, True]","[""How many flights are there per round?"",""True or false: The hidden values will change each time I start a new round."",""How much does it cost to observe each hidden value?"",""How many hidden values am I allowed to observe in each round?"",""How is your bonus determined?"",""What does the feedback teach you?""]","[""4"",""True"",""$2.80"",""As many or as few as I wish"",""5% of my score on a random round"",""All of the above.""]",39859,521016,survey-multi-choice,A1XVYOL52UT8T9,3J88R45B2GYLFP36V3MOXWQ3VPDPX7,21
402,"[False, True, True, True, True, False]","[""How many flights are there per round?"",""True or false: The hidden values will change each time I start a new round."",""How much does it cost to observe each hidden value?"",""How many hidden values am I allowed to observe in each round?"",""How is your bonus determined?"",""What does the feedback teach you?""]","[""4"",""True"",""$2.80"",""As many or as few as I wish"",""5% of my score on a random round"",""Whether I chose the move that was best according to the information I had.""]",35894,591203,survey-multi-choice,A1XVYOL52UT8T9,3J88R45B2GYLFP36V3MOXWQ3VPDPX7,21
404,"[False, True, True, True, True, True]","[""How many flights are there per round?"",""True or false: The hidden values will change each time I start a new round."",""How much does it cost to observe each hidden value?"",""How many hidden values am I allowed to observe in each round?"",""How is your bonus determined?"",""What does the feedback teach you?""]","[""4"",""True"",""$2.80"",""As many or as few as I wish"",""5% of my score on a random round"",""All of the above.""]",48624,763296,survey-multi-choice,A1XVYOL52UT8T9,3J88R45B2GYLFP36V3MOXWQ3VPDPX7,21
406,"[False, True, True, True, True, True]","[""How many flights are there per round?"",""True or false: The hidden values will change each time I start a new round."",""How much does it cost to observe each hidden value?"",""How many hidden values am I allowed to observe in each round?"",""How is your bonus determined?"",""What does the feedback teach you?""]","[""1"",""True"",""$2.80"",""As many or as few as I wish"",""5% of my score on a random round"",""All of the above.""]",49166,821612,survey-multi-choice,A1XVYOL52UT8T9,3J88R45B2GYLFP36V3MOXWQ3VPDPX7,21
408,"[True, True, True, True, True, True]","[""How many flights are there per round?"",""True or false: The hidden values will change each time I start a new round."",""How much does it cost to observe each hidden value?"",""How many hidden values am I allowed to observe in each round?"",""How is your bonus determined?"",""What does the feedback teach you?""]","[""3"",""True"",""$2.80"",""As many or as few as I wish"",""5% of my score on a random round"",""All of the above.""]",36777,1002654,survey-multi-choice,A1XVYOL52UT8T9,3J88R45B2GYLFP36V3MOXWQ3VPDPX7,21
419,"[False, True, True, True, True]","[""How many flights are there per round?"",""True or false: The hidden values will change each time I start a new round."",""How much does it cost to observe each hidden value?"",""How many hidden values am I allowed to observe in each round?"",""How is your bonus determined?""]","[""2"",""True"",""$0.01"",""As many or as few as I wish"",""5% of my score on a random round""]",21498,79190,survey-multi-choice,A1YH20CUYZOF6I,3MD9PLUKKIEAHZR8G6XHQS1J3A9ZNH,22
421,"[True, True, True, True, True]","[""How many flights are there per round?"",""True or false: The hidden values will change each time I start a new round."",""How much does it cost to observe each hidden value?"",""How many hidden values am I allowed to observe in each round?"",""How is your bonus determined?""]","[""3"",""True"",""$0.01"",""As many or as few as I wish"",""5% of my score on a random round""]",10903,133287,survey-multi-choice,A1YH20CUYZOF6I,3MD9PLUKKIEAHZR8G6XHQS1J3A9ZNH,22
432,"[False, True, True, True, True]","[""How many flights are there per round?"",""True or false: The hidden values will change each time I start a new round."",""How much does it cost to observe each hidden value?"",""How many hidden values am I allowed to observe in each round?"",""How is your bonus determined?""]","[""1"",""True"",""$1.60"",""As many or as few as I wish"",""5% of my score on a random round""]",20561,108196,survey-multi-choice,A1Z6F664MYBMVI,39KFRKBFINVSUUHFLZVBRASMNQAOYU,23
434,"[False, True, True, True, True]","[""How many flights are there per round?"",""True or false: The hidden values will change each time I start a new round."",""How much does it cost to observe each hidden value?"",""How many hidden values am I allowed to observe in each round?"",""How is your bonus determined?""]","[""1"",""True"",""$1.60"",""As many or as few as I wish"",""5% of my score on a random round""]",23437,201418,survey-multi-choice,A1Z6F664MYBMVI,39KFRKBFINVSUUHFLZVBRASMNQAOYU,23
436,"[False, True, True, True, True]","[""How many flights are there per round?"",""True or false: The hidden values will change each time I start a new round."",""How much does it cost to observe each hidden value?"",""How many hidden values am I allowed to observe in each round?"",""How is your bonus determined?""]","[""4"",""True"",""$1.60"",""As many or as few as I wish"",""5% of my score on a random round""]",38760,308202,survey-multi-choice,A1Z6F664MYBMVI,39KFRKBFINVSUUHFLZVBRASMNQAOYU,23
438,"[False, False, True, True, True]","[""How many flights are there per round?"",""True or false: The hidden values will change each time I start a new round."",""How much does it cost to observe each hidden value?"",""How many hidden values am I allowed to observe in each round?"",""How is your bonus determined?""]","[""1"",""False"",""$1.60"",""As many or as few as I wish"",""5% of my score on a random round""]",15286,400082,survey-multi-choice,A1Z6F664MYBMVI,39KFRKBFINVSUUHFLZVBRASMNQAOYU,23
440,"[False, True, True, True, True]","[""How many flights are there per round?"",""True or false: The hidden values will change each time I start a new round."",""How much does it cost to observe each hidden value?"",""How many hidden values am I allowed to observe in each round?"",""How is your bonus determined?""]","[""2"",""True"",""$1.60"",""As many or as few as I wish"",""5% of my score on a random round""]",41709,452371,survey-multi-choice,A1Z6F664MYBMVI,39KFRKBFINVSUUHFLZVBRASMNQAOYU,23
442,"[False, False, True, True, True]","[""How many flights are there per round?"",""True or false: The hidden values will change each time I start a new round."",""How much does it cost to observe each hidden value?"",""How many hidden values am I allowed to observe in each round?"",""How is your bonus determined?""]","[""1"",""False"",""$1.60"",""As many or as few as I wish"",""5% of my score on a random round""]",14952,474856,survey-multi-choice,A1Z6F664MYBMVI,39KFRKBFINVSUUHFLZVBRASMNQAOYU,23
444,"[True, True, True, True, True]","[""How many flights are there per round?"",""True or false: The hidden values will change each time I start a new round."",""How much does it cost to observe each hidden value?"",""How many hidden values am I allowed to observe in each round?"",""How is your bonus determined?""]","[""3"",""True"",""$1.60"",""As many or as few as I wish"",""5% of my score on a random round""]",10639,492776,survey-multi-choice,A1Z6F664MYBMVI,39KFRKBFINVSUUHFLZVBRASMNQAOYU,23
455,"[False, True, True, True, False, True]","[""How many flights are there per round?"",""True or false: The hidden values will change each time I start a new round."",""How much does it cost to observe each hidden value?"",""How many hidden values am I allowed to observe in each round?"",""How is your bonus determined?"",""What does the feedback teach you?""]","[""1"",""True"",""$2.80"",""As many or as few as I wish"",""5% of my best score on any round"",""All of the above.""]",21072,45932,survey-multi-choice,A20CZCJPRP54G9,3WEV0KO0OMS4UBEHWKP6YUSM2R7SDN,24
457,"[False, True, True, True, True, False]","[""How many flights are there per round?"",""True or false: The hidden values will change each time I start a new round."",""How much does it cost to observe each hidden value?"",""How many hidden values am I allowed to observe in each round?"",""How is your bonus determined?"",""What does the feedback teach you?""]","[""1"",""True"",""$2.80"",""As many or as few as I wish"",""5% of my score on a random round"",""Whether I observed the rewards of relevant locations.""]",20323,102490,survey-multi-choice,A20CZCJPRP54G9,3WEV0KO0OMS4UBEHWKP6YUSM2R7SDN,24
459,"[False, True, True, True, True, False]","[""How many flights are there per round?"",""True or false: The hidden values will change each time I start a new round."",""How much does it cost to observe each hidden value?"",""How many hidden values am I allowed to observe in each round?"",""How is your bonus determined?"",""What does the feedback teach you?""]","[""1"",""True"",""$2.80"",""As many or as few as I wish"",""5% of my score on a random round"",""The length of the day is based on how much more money I could have earned by planning and deciding better.""]",22057,142306,survey-multi-choice,A20CZCJPRP54G9,3WEV0KO0OMS4UBEHWKP6YUSM2R7SDN,24
461,"[False, True, True, True, True, False]","[""How many flights are there per round?"",""True or false: The hidden values will change each time I start a new round."",""How much does it cost to observe each hidden value?"",""How many hidden values am I allowed to observe in each round?"",""How is your bonus determined?"",""What does the feedback teach you?""]","[""2"",""True"",""$2.80"",""As many or as few as I wish"",""5% of my score on a random round"",""Whether I chose the move that was best according to the information I had.""]",12535,160722,survey-multi-choice,A20CZCJPRP54G9,3WEV0KO0OMS4UBEHWKP6YUSM2R7SDN,24
463,"[False, True, True, True, True, False]","[""How many flights are there per round?"",""True or false: The hidden values will change each time I start a new round."",""How much does it cost to observe each hidden value?"",""How many hidden values am I allowed to observe in each round?"",""How is your bonus determined?"",""What does the feedback teach you?""]","[""2"",""True"",""$2.80"",""As many or as few as I wish"",""5% of my score on a random round"",""Whether I observed the rewards of relevant locations.""]",8784,175530,survey-multi-choice,A20CZCJPRP54G9,3WEV0KO0OMS4UBEHWKP6YUSM2R7SDN,24
465,"[True, True, True, True, True, True]","[""How many flights are there per round?"",""True or false: The hidden values will change each time I start a new round."",""How much does it cost to observe each hidden value?"",""How many hidden values am I allowed to observe in each round?"",""How is your bonus determined?"",""What does the feedback teach you?""]","[""3"",""True"",""$2.80"",""As many or as few as I wish"",""5% of my score on a random round"",""All of the above.""]",15283,196444,survey-multi-choice,A20CZCJPRP54G9,3WEV0KO0OMS4UBEHWKP6YUSM2R7SDN,24
476,"[True, True, True, True, True, True]","[""How many flights are there per round?"",""True or false: The hidden values will change each time I start a new round."",""How much does it cost to observe each hidden value?"",""How many hidden values am I allowed to observe in each round?"",""How is your bonus determined?"",""What does the feedback teach you?""]","[""3"",""True"",""$1.60"",""As many or as few as I wish"",""5% of my score on a random round"",""All of the above.""]",11668,30970,survey-multi-choice,A221JJK7P6K22W,3IOEN3P9S7J5FI089E28WNVLV5861Q,25
487,"[True, True, True, True, True, True]","[""How many flights are there per round?"",""True or false: The hidden values will change each time I start a new round."",""How much does it cost to observe each hidden value?"",""How many hidden values am I allowed to observe in each round?"",""How is your bonus determined?"",""What does the feedback teach you?""]","[""3"",""True"",""$1.60"",""As many or as few as I wish"",""5% of my score on a random round"",""All of the above.""]",45068,198885,survey-multi-choice,A23GOZ33HMA3P1,3XM0HYN6NKZC9PCP0YWW975WFJ1EPM,26
498,"[False, True, True, True, True]","[""How many flights are there per round?"",""True or false: The hidden values will change each time I start a new round."",""How much does it cost to observe each hidden value?"",""How many hidden values am I allowed to observe in each round?"",""How is your bonus determined?""]","[""2"",""True"",""$0.01"",""As many or as few as I wish"",""5% of my score on a random round""]",16799,105972,survey-multi-choice,A258IQXX7F3Z8O,3OE22WJIGIOEYXAQQBQQDUH963IQU7,27
500,"[False, True, True, True, True]","[""How many flights are there per round?"",""True or false: The hidden values will change each time I start a new round."",""How much does it cost to observe each hidden value?"",""How many hidden values am I allowed to observe in each round?"",""How is your bonus determined?""]","[""1"",""True"",""$0.01"",""As many or as few as I wish"",""5% of my score on a random round""]",12195,164088,survey-multi-choice,A258IQXX7F3Z8O,3OE22WJIGIOEYXAQQBQQDUH963IQU7,27
502,"[False, True, True, True, True]","[""How many flights are there per round?"",""True or false: The hidden values will change each time I start a new round."",""How much does it cost to observe each hidden value?"",""How many hidden values am I allowed to observe in each round?"",""How is your bonus determined?""]","[""1"",""True"",""$0.01"",""As many or as few as I wish"",""5% of my score on a random round""]",17706,223019,survey-multi-choice,A258IQXX7F3Z8O,3OE22WJIGIOEYXAQQBQQDUH963IQU7,27
504,"[False, True, True, True, True]","[""How many flights are there per round?"",""True or false: The hidden values will change each time I start a new round."",""How much does it cost to observe each hidden value?"",""How many hidden values am I allowed to observe in each round?"",""How is your bonus determined?""]","[""1"",""True"",""$0.01"",""As many or as few as I wish"",""5% of my score on a random round""]",26057,281135,survey-multi-choice,A258IQXX7F3Z8O,3OE22WJIGIOEYXAQQBQQDUH963IQU7,27
506,"[False, False, True, True, True]","[""How many flights are there per round?"",""True or false: The hidden values will change each time I start a new round."",""How much does it cost to observe each hidden value?"",""How many hidden values am I allowed to observe in each round?"",""How is your bonus determined?""]","[""1"",""False"",""$0.01"",""As many or as few as I wish"",""5% of my score on a random round""]",17795,335787,survey-multi-choice,A258IQXX7F3Z8O,3OE22WJIGIOEYXAQQBQQDUH963IQU7,27
508,"[False, True, True, False, False]","[""How many flights are there per round?"",""True or false: The hidden values will change each time I start a new round."",""How much does it cost to observe each hidden value?"",""How many hidden values am I allowed to observe in each round?"",""How is your bonus determined?""]","[""1"",""True"",""$0.01"",""At most 5"",""5% of my best score on any round""]",20352,381798,survey-multi-choice,A258IQXX7F3Z8O,3OE22WJIGIOEYXAQQBQQDUH963IQU7,27
510,"[False, True, True, True, False]","[""How many flights are there per round?"",""True or false: The hidden values will change each time I start a new round."",""How much does it cost to observe each hidden value?"",""How many hidden values am I allowed to observe in each round?"",""How is your bonus determined?""]","[""1"",""True"",""$0.01"",""As many or as few as I wish"",""5% of my best score on any round""]",17016,443882,survey-multi-choice,A258IQXX7F3Z8O,3OE22WJIGIOEYXAQQBQQDUH963IQU7,27
512,"[False, True, True, True, True]","[""How many flights are there per round?"",""True or false: The hidden values will change each time I start a new round."",""How much does it cost to observe each hidden value?"",""How many hidden values am I allowed to observe in each round?"",""How is your bonus determined?""]","[""2"",""True"",""$0.01"",""As many or as few as I wish"",""5% of my score on a random round""]",15712,474018,survey-multi-choice,A258IQXX7F3Z8O,3OE22WJIGIOEYXAQQBQQDUH963IQU7,27
514,"[False, True, True, True, True]","[""How many flights are there per round?"",""True or false: The hidden values will change each time I start a new round."",""How much does it cost to observe each hidden value?"",""How many hidden values am I allowed to observe in each round?"",""How is your bonus determined?""]","[""2"",""True"",""$0.01"",""As many or as few as I wish"",""5% of my score on a random round""]",12082,494712,survey-multi-choice,A258IQXX7F3Z8O,3OE22WJIGIOEYXAQQBQQDUH963IQU7,27
516,"[True, True, True, True, True]","[""How many flights are there per round?"",""True or false: The hidden values will change each time I start a new round."",""How much does it cost to observe each hidden value?"",""How many hidden values am I allowed to observe in each round?"",""How is your bonus determined?""]","[""3"",""True"",""$0.01"",""As many or as few as I wish"",""5% of my score on a random round""]",10795,512933,survey-multi-choice,A258IQXX7F3Z8O,3OE22WJIGIOEYXAQQBQQDUH963IQU7,27
527,"[False, True, True, True, False]","[""How many flights are there per round?"",""True or false: The hidden values will change each time I start a new round."",""How much does it cost to observe each hidden value?"",""How many hidden values am I allowed to observe in each round?"",""How is your bonus determined?""]","[""1"",""True"",""$1.60"",""As many or as few as I wish"",""5% of my best score on any round""]",31388,140416,survey-multi-choice,A26A4HEBGP2MOX,3180JW2OT4CGRVGYUKY98HD7TRW5JC,28
529,"[False, True, True, True, False]","[""How many flights are there per round?"",""True or false: The hidden values will change each time I start a new round."",""How much does it cost to observe each hidden value?"",""How many hidden values am I allowed to observe in each round?"",""How is your bonus determined?""]","[""4"",""True"",""$1.60"",""As many or as few as I wish"",""5% of my best score on any round""]",32634,245415,survey-multi-choice,A26A4HEBGP2MOX,3180JW2OT4CGRVGYUKY98HD7TRW5JC,28
531,"[False, True, True, True, True]","[""How many flights are there per round?"",""True or false: The hidden values will change each time I start a new round."",""How much does it cost to observe each hidden value?"",""How many hidden values am I allowed to observe in each round?"",""How is your bonus determined?""]","[""1"",""True"",""$1.60"",""As many or as few as I wish"",""5% of my score on a random round""]",15188,398862,survey-multi-choice,A26A4HEBGP2MOX,3180JW2OT4CGRVGYUKY98HD7TRW5JC,28
533,"[False, True, True, True, True]","[""How many flights are there per round?"",""True or false: The hidden values will change each time I start a new round."",""How much does it cost to observe each hidden value?"",""How many hidden values am I allowed to observe in each round?"",""How is your bonus determined?""]","[""2"",""True"",""$1.60"",""As many or as few as I wish"",""5% of my score on a random round""]",17559,434654,survey-multi-choice,A26A4HEBGP2MOX,3180JW2OT4CGRVGYUKY98HD7TRW5JC,28
535,"[False, True, True, True, True]","[""How many flights are there per round?"",""True or false: The hidden values will change each time I start a new round."",""How much does it cost to observe each hidden value?"",""How many hidden values am I allowed to observe in each round?"",""How is your bonus determined?""]","[""4"",""True"",""$1.60"",""As many or as few as I wish"",""5% of my score on a random round""]",21055,500622,survey-multi-choice,A26A4HEBGP2MOX,3180JW2OT4CGRVGYUKY98HD7TRW5JC,28
537,"[True, True, True, True, True]","[""How many flights are there per round?"",""True or false: The hidden values will change each time I start a new round."",""How much does it cost to observe each hidden value?"",""How many hidden values am I allowed to observe in each round?"",""How is your bonus determined?""]","[""3"",""True"",""$1.60"",""As many or as few as I wish"",""5% of my score on a random round""]",14228,521135,survey-multi-choice,A26A4HEBGP2MOX,3180JW2OT4CGRVGYUKY98HD7TRW5JC,28
548,"[False, True, True, True, True, True]","[""How many flights are there per round?"",""True or false: The hidden values will change each time I start a new round."",""How much does it cost to observe each hidden value?"",""How many hidden values am I allowed to observe in each round?"",""How is your bonus determined?"",""What does the feedback teach you?""]","[""2"",""True"",""$1.60"",""As many or as few as I wish"",""5% of my score on a random round"",""All of the above.""]",283125,429949,survey-multi-choice,A27C390EYECHAN,3W8CV64QJ2Z31CNK9A858K2U2VB9H2,29
550,"[False, True, True, True, True, False]","[""How many flights are there per round?"",""True or false: The hidden values will change each time I start a new round."",""How much does it cost to observe each hidden value?"",""How many hidden values am I allowed to observe in each round?"",""How is your bonus determined?"",""What does the feedback teach you?""]","[""2"",""True"",""$1.60"",""As many or as few as I wish"",""5% of my score on a random round"",""Whether I chose the move that was best according to the information I had.""]",22126,589665,survey-multi-choice,A27C390EYECHAN,3W8CV64QJ2Z31CNK9A858K2U2VB9H2,29
552,"[False, True, True, True, True, True]","[""How many flights are there per round?"",""True or false: The hidden values will change each time I start a new round."",""How much does it cost to observe each hidden value?"",""How many hidden values am I allowed to observe in each round?"",""How is your bonus determined?"",""What does the feedback teach you?""]","[""2"",""True"",""$1.60"",""As many or as few as I wish"",""5% of my score on a random round"",""All of the above.""]",25204,645885,survey-multi-choice,A27C390EYECHAN,3W8CV64QJ2Z31CNK9A858K2U2VB9H2,29
554,"[False, True, True, True, True, True]","[""How many flights are there per round?"",""True or false: The hidden values will change each time I start a new round."",""How much does it cost to observe each hidden value?"",""How many hidden values am I allowed to observe in each round?"",""How is your bonus determined?"",""What does the feedback teach you?""]","[""1"",""True"",""$1.60"",""As many or as few as I wish"",""5% of my score on a random round"",""All of the above.""]",9903,664944,survey-multi-choice,A27C390EYECHAN,3W8CV64QJ2Z31CNK9A858K2U2VB9H2,29
556,"[False, True, True, True, True, True]","[""How many flights are there per round?"",""True or false: The hidden values will change each time I start a new round."",""How much does it cost to observe each hidden value?"",""How many hidden values am I allowed to observe in each round?"",""How is your bonus determined?"",""What does the feedback teach you?""]","[""4"",""True"",""$1.60"",""As many or as few as I wish"",""5% of my score on a random round"",""All of the above.""]",58471,732396,survey-multi-choice,A27C390EYECHAN,3W8CV64QJ2Z31CNK9A858K2U2VB9H2,29
558,"[True, True, True, True, False, True]","[""How many flights are there per round?"",""True or false: The hidden values will change each time I start a new round."",""How much does it cost to observe each hidden value?"",""How many hidden values am I allowed to observe in each round?"",""How is your bonus determined?"",""What does the feedback teach you?""]","[""3"",""True"",""$1.60"",""As many or as few as I wish"",""5% of my best score on any round"",""All of the above.""]",27340,768718,survey-multi-choice,A27C390EYECHAN,3W8CV64QJ2Z31CNK9A858K2U2VB9H2,29
560,"[False, True, True, True, True, False]","[""How many flights are there per round?"",""True or false: The hidden values will change each time I start a new round."",""How much does it cost to observe each hidden value?"",""How many hidden values am I allowed to observe in each round?"",""How is your bonus determined?"",""What does the feedback teach you?""]","[""2"",""True"",""$1.60"",""As many or as few as I wish"",""5% of my score on a random round"",""Whether I chose the move that was best according to the information I had.""]",23433,801157,survey-multi-choice,A27C390EYECHAN,3W8CV64QJ2Z31CNK9A858K2U2VB9H2,29
562,"[False, True, True, True, True, False]","[""How many flights are there per round?"",""True or false: The hidden values will change each time I start a new round."",""How much does it cost to observe each hidden value?"",""How many hidden values am I allowed to observe in each round?"",""How is your bonus determined?"",""What does the feedback teach you?""]","[""2"",""True"",""$1.60"",""As many or as few as I wish"",""5% of my score on a random round"",""Whether I chose the move that was best according to the information I had.""]",15587,912724,survey-multi-choice,A27C390EYECHAN,3W8CV64QJ2Z31CNK9A858K2U2VB9H2,29
564,"[False, True, True, True, True, False]","[""How many flights are there per round?"",""True or false: The hidden values will change each time I start a new round."",""How much does it cost to observe each hidden value?"",""How many hidden values am I allowed to observe in each round?"",""How is your bonus determined?"",""What does the feedback teach you?""]","[""2"",""True"",""$1.60"",""As many or as few as I wish"",""5% of my score on a random round"",""The length of the day is based on how much more money I could have earned by planning and deciding better.""]",9529,945994,survey-multi-choice,A27C390EYECHAN,3W8CV64QJ2Z31CNK9A858K2U2VB9H2,29
566,"[False, True, True, False, True, True]","[""How many flights are there per round?"",""True or false: The hidden values will change each time I start a new round."",""How much does it cost to observe each hidden value?"",""How many hidden values am I allowed to observe in each round?"",""How is your bonus determined?"",""What does the feedback teach you?""]","[""2"",""True"",""$1.60"",""At most 15"",""5% of my score on a random round"",""All of the above.""]",30052,1005755,survey-multi-choice,A27C390EYECHAN,3W8CV64QJ2Z31CNK9A858K2U2VB9H2,29
568,"[False, True, True, True, False, True]","[""How many flights are there per round?"",""True or false: The hidden values will change each time I start a new round."",""How much does it cost to observe each hidden value?"",""How many hidden values am I allowed to observe in each round?"",""How is your bonus determined?"",""What does the feedback teach you?""]","[""2"",""True"",""$1.60"",""As many or as few as I wish"",""5% of my best score on any round"",""All of the above.""]",24521,1048464,survey-multi-choice,A27C390EYECHAN,3W8CV64QJ2Z31CNK9A858K2U2VB9H2,29
570,"[False, True, True, True, True, False]","[""How many flights are there per round?"",""True or false: The hidden values will change each time I start a new round."",""How much does it cost to observe each hidden value?"",""How many hidden values am I allowed to observe in each round?"",""How is your bonus determined?"",""What does the feedback teach you?""]","[""2"",""True"",""$1.60"",""As many or as few as I wish"",""5% of my score on a random round"",""Whether I chose the move that was best according to the information I had.""]",99492,1161904,survey-multi-choice,A27C390EYECHAN,3W8CV64QJ2Z31CNK9A858K2U2VB9H2,29
572,"[True, True, True, True, True, False]","[""How many flights are there per round?"",""True or false: The hidden values will change each time I start a new round."",""How much does it cost to observe each hidden value?"",""How many hidden values am I allowed to observe in each round?"",""How is your bonus determined?"",""What does the feedback teach you?""]","[""3"",""True"",""$1.60"",""As many or as few as I wish"",""5% of my score on a random round"",""The length of the day is based on how much more money I could have earned by planning and deciding better.""]",11780,1204706,survey-multi-choice,A27C390EYECHAN,3W8CV64QJ2Z31CNK9A858K2U2VB9H2,29
574,"[True, True, True, True, True, True]","[""How many flights are there per round?"",""True or false: The hidden values will change each time I start a new round."",""How much does it cost to observe each hidden value?"",""How many hidden values am I allowed to observe in each round?"",""How is your bonus determined?"",""What does the feedback teach you?""]","[""3"",""True"",""$1.60"",""As many or as few as I wish"",""5% of my score on a random round"",""All of the above.""]",9219,1220700,survey-multi-choice,A27C390EYECHAN,3W8CV64QJ2Z31CNK9A858K2U2VB9H2,29
585,"[False, True, True, True, True, True]","[""How many flights are there per round?"",""True or false: The hidden values will change each time I start a new round."",""How much does it cost to observe each hidden value?"",""How many hidden values am I allowed to observe in each round?"",""How is your bonus determined?"",""What does the feedback teach you?""]","[""1"",""True"",""$1.60"",""As many or as few as I wish"",""5% of my score on a random round"",""All of the above.""]",25415,119493,survey-multi-choice,A27SMEOPKV84VI,3SNVL38CI4SW10VVRFLTN2JU0XICKQ,30
587,"[False, True, True, True, True, False]","[""How many flights are there per round?"",""True or false: The hidden values will change each time I start a new round."",""How much does it cost to observe each hidden value?"",""How many hidden values am I allowed to observe in each round?"",""How is your bonus determined?"",""What does the feedback teach you?""]","[""1"",""True"",""$1.60"",""As many or as few as I wish"",""5% of my score on a random round"",""Whether I chose the move that was best according to the information I had.""]",28564,246844,survey-multi-choice,A27SMEOPKV84VI,3SNVL38CI4SW10VVRFLTN2JU0XICKQ,30
589,"[True, True, True, True, True, False]","[""How many flights are there per round?"",""True or false: The hidden values will change each time I start a new round."",""How much does it cost to observe each hidden value?"",""How many hidden values am I allowed to observe in each round?"",""How is your bonus determined?"",""What does the feedback teach you?""]","[""3"",""True"",""$1.60"",""As many or as few as I wish"",""5% of my score on a random round"",""Whether I chose the move that was best according to the information I had.""]",31331,415055,survey-multi-choice,A27SMEOPKV84VI,3SNVL38CI4SW10VVRFLTN2JU0XICKQ,30
591,"[True, True, True, True, True, True]","[""How many flights are there per round?"",""True or false: The hidden values will change each time I start a new round."",""How much does it cost to observe each hidden value?"",""How many hidden values am I allowed to observe in each round?"",""How is your bonus determined?"",""What does the feedback teach you?""]","[""3"",""True"",""$1.60"",""As many or as few as I wish"",""5% of my score on a random round"",""All of the above.""]",12388,434559,survey-multi-choice,A27SMEOPKV84VI,3SNVL38CI4SW10VVRFLTN2JU0XICKQ,30
602,"[False, True, True, True, True]","[""How many flights are there per round?"",""True or false: The hidden values will change each time I start a new round."",""How much does it cost to observe each hidden value?"",""How many hidden values am I allowed to observe in each round?"",""How is your bonus determined?""]","[""2"",""True"",""$2.80"",""As many or as few as I wish"",""5% of my score on a random round""]",17955,92938,survey-multi-choice,A2CB7WDJ9V6VVN,3N2BF7Y2VQUI8W6EYJCAD68E2UJHMA,31
604,"[False, True, True, True, True]","[""How many flights are there per round?"",""True or false: The hidden values will change each time I start a new round."",""How much does it cost to observe each hidden value?"",""How many hidden values am I allowed to observe in each round?"",""How is your bonus determined?""]","[""2"",""True"",""$2.80"",""As many or as few as I wish"",""5% of my score on a random round""]",12510,170007,survey-multi-choice,A2CB7WDJ9V6VVN,3N2BF7Y2VQUI8W6EYJCAD68E2UJHMA,31
606,"[True, True, True, True, True]","[""How many flights are there per round?"",""True or false: The hidden values will change each time I start a new round."",""How much does it cost to observe each hidden value?"",""How many hidden values am I allowed to observe in each round?"",""How is your bonus determined?""]","[""3"",""True"",""$2.80"",""As many or as few as I wish"",""5% of my score on a random round""]",16517,224635,survey-multi-choice,A2CB7WDJ9V6VVN,3N2BF7Y2VQUI8W6EYJCAD68E2UJHMA,31
617,"[False, True, True, True, True, True]","[""How many flights are there per round?"",""True or false: The hidden values will change each time I start a new round."",""How much does it cost to observe each hidden value?"",""How many hidden values am I allowed to observe in each round?"",""How is your bonus determined?"",""What does the feedback teach you?""]","[""1"",""True"",""$0.01"",""As many or as few as I wish"",""5% of my score on a random round"",""All of the above.""]",31291,150345,survey-multi-choice,A2EYPSP4BXAZZ2,3WJ1OXY92AGODKWWYCSZR2KF5U48A2,32
619,"[False, True, True, True, True, False]","[""How many flights are there per round?"",""True or false: The hidden values will change each time I start a new round."",""How much does it cost to observe each hidden value?"",""How many hidden values am I allowed to observe in each round?"",""How is your bonus determined?"",""What does the feedback teach you?""]","[""1"",""True"",""$0.01"",""As many or as few as I wish"",""5% of my score on a random round"",""Whether I chose the move that was best according to the information I had.""]",14719,177372,survey-multi-choice,A2EYPSP4BXAZZ2,3WJ1OXY92AGODKWWYCSZR2KF5U48A2,32
621,"[False, True, True, True, True, False]","[""How many flights are there per round?"",""True or false: The hidden values will change each time I start a new round."",""How much does it cost to observe each hidden value?"",""How many hidden values am I allowed to observe in each round?"",""How is your bonus determined?"",""What does the feedback teach you?""]","[""1"",""True"",""$0.01"",""As many or as few as I wish"",""5% of my score on a random round"",""Whether I observed the rewards of relevant locations.""]",12201,232042,survey-multi-choice,A2EYPSP4BXAZZ2,3WJ1OXY92AGODKWWYCSZR2KF5U48A2,32
623,"[False, True, True, True, True, False]","[""How many flights are there per round?"",""True or false: The hidden values will change each time I start a new round."",""How much does it cost to observe each hidden value?"",""How many hidden values am I allowed to observe in each round?"",""How is your bonus determined?"",""What does the feedback teach you?""]","[""1"",""True"",""$0.01"",""As many or as few as I wish"",""5% of my score on a random round"",""The length of the day is based on how much more money I could have earned by planning and deciding better.""]",10457,255560,survey-multi-choice,A2EYPSP4BXAZZ2,3WJ1OXY92AGODKWWYCSZR2KF5U48A2,32
625,"[False, True, True, True, True, True]","[""How many flights are there per round?"",""True or false: The hidden values will change each time I start a new round."",""How much does it cost to observe each hidden value?"",""How many hidden values am I allowed to observe in each round?"",""How is your bonus determined?"",""What does the feedback teach you?""]","[""4"",""True"",""$0.01"",""As many or as few as I wish"",""5% of my score on a random round"",""All of the above.""]",28800,339257,survey-multi-choice,A2EYPSP4BXAZZ2,3WJ1OXY92AGODKWWYCSZR2KF5U48A2,32
627,"[True, True, True, True, True, True]","[""How many flights are there per round?"",""True or false: The hidden values will change each time I start a new round."",""How much does it cost to observe each hidden value?"",""How many hidden values am I allowed to observe in each round?"",""How is your bonus determined?"",""What does the feedback teach you?""]","[""3"",""True"",""$0.01"",""As many or as few as I wish"",""5% of my score on a random round"",""All of the above.""]",7501,359194,survey-multi-choice,A2EYPSP4BXAZZ2,3WJ1OXY92AGODKWWYCSZR2KF5U48A2,32
638,"[False, True, True, True, True, False]","[""How many flights are there per round?"",""True or false: The hidden values will change each time I start a new round."",""How much does it cost to observe each hidden value?"",""How many hidden values am I allowed to observe in each round?"",""How is your bonus determined?"",""What does the feedback teach you?""]","[""1"",""True"",""$1.60"",""As many or as few as I wish"",""5% of my score on a random round"",""Whether I chose the move that was best according to the information I had.""]",59712,281457,survey-multi-choice,A2I3Y0L38HMQLZ,3K772S5NP8BKW8E1HLOR0Y35TSRHEK,33
640,"[False, True, True, True, True, True]","[""How many flights are there per round?"",""True or false: The hidden values will change each time I start a new round."",""How much does it cost to observe each hidden value?"",""How many hidden values am I allowed to observe in each round?"",""How is your bonus determined?"",""What does the feedback teach you?""]","[""4"",""True"",""$1.60"",""As many or as few as I wish"",""5% of my score on a random round"",""All of the above.""]",23232,420697,survey-multi-choice,A2I3Y0L38HMQLZ,3K772S5NP8BKW8E1HLOR0Y35TSRHEK,33
642,"[True, True, True, True, True, True]","[""How many flights are there per round?"",""True or false: The hidden values will change each time I start a new round."",""How much does it cost to observe each hidden value?"",""How many hidden values am I allowed to observe in each round?"",""How is your bonus determined?"",""What does the feedback teach you?""]","[""3"",""True"",""$1.60"",""As many or as few as I wish"",""5% of my score on a random round"",""All of the above.""]",16893,516521,survey-multi-choice,A2I3Y0L38HMQLZ,3K772S5NP8BKW8E1HLOR0Y35TSRHEK,33
653,"[True, True, False, True, True]","[""How many flights are there per round?"",""True or false: The hidden values will change each time I start a new round."",""How much does it cost to observe each hidden value?"",""How many hidden values am I allowed to observe in each round?"",""How is your bonus determined?""]","[""3"",""True"",""$1.60"",""As many or as few as I wish"",""5% of my score on a random round""]",31596,64114,survey-multi-choice,A2IRBZJJEB9P5E,3XCC1ODXDLBMI5I9MHVL8JUPZ4CRQ2,34
655,"[True, True, False, True, True]","[""How many flights are there per round?"",""True or false: The hidden values will change each time I start a new round."",""How much does it cost to observe each hidden value?"",""How many hidden values am I allowed to observe in each round?"",""How is your bonus determined?""]","[""3"",""True"",""$1.60"",""As many or as few as I wish"",""5% of my score on a random round""]",22723,100326,survey-multi-choice,A2IRBZJJEB9P5E,3XCC1ODXDLBMI5I9MHVL8JUPZ4CRQ2,34
657,"[True, True, True, True, True]","[""How many flights are there per round?"",""True or false: The hidden values will change each time I start a new round."",""How much does it cost to observe each hidden value?"",""How many hidden values am I allowed to observe in each round?"",""How is your bonus determined?""]","[""3"",""True"",""$2.80"",""As many or as few as I wish"",""5% of my score on a random round""]",40117,233313,survey-multi-choice,A2IRBZJJEB9P5E,3XCC1ODXDLBMI5I9MHVL8JUPZ4CRQ2,34
