A10ZOUOZZ3EOAJ:3ZOTGHDK5IBVY856MT3M9O4K3BBOSK,0,1488084697806,"{""rt"": 177326, ""trial_type"": ""instructions"", ""view_history"": ""[{\""page_index\"":0,\""viewing_time\"":57165},{\""page_index\"":1,\""viewing_time\"":65484},{\""page_index\"":2,\""viewing_time\"":35712},{\""page_index\"":3,\""viewing_time\"":18963}]"", ""internal_node_id"": ""0.0-0.0-0.0"", ""time_elapsed"": 177328, ""trial_index"": 0}"
A10ZOUOZZ3EOAJ:3ZOTGHDK5IBVY856MT3M9O4K3BBOSK,1,1488084784789,"{""rt"": 82248, ""trial_type"": ""survey-multi-choice"", ""responses"": ""[\""3\"",\""True\"",\""$0.10\"",\""As many or as few as I wish\"",\""My earnings for each round are equal to the <i>sum</i> of the values of all locations I visit (minus the cost of making observations), but these earnings aren't real money.\"",\""All of the above.\""]"", ""internal_node_id"": ""0.0-0.0-1.0"", ""time_elapsed"": 264311, ""questions"": ""[\""How many flights are there per round?\"",\""True or false: The hidden values will change each time I start a new round.\"",\""How much does it cost to observe each hidden value?\"",\""How many hidden values am I allowed to observe in each round?\"",\""Which statement is TRUE?\"",\""What does the feedback teach me?\""]"", ""correct"": [true, true, true, true, false, true], ""trial_index"": 1}"
A10ZOUOZZ3EOAJ:3ZOTGHDK5IBVY856MT3M9O4K3BBOSK,2,1488084872918,"{""rt"": 87112, ""trial_type"": ""instructions"", ""view_history"": ""[{\""page_index\"":0,\""viewing_time\"":8389},{\""page_index\"":1,\""viewing_time\"":14920},{\""page_index\"":2,\""viewing_time\"":49951},{\""page_index\"":3,\""viewing_time\"":13851}]"", ""internal_node_id"": ""0.0-0.1-0.1"", ""time_elapsed"": 352440, ""trial_index"": 2}"
A10ZOUOZZ3EOAJ:3ZOTGHDK5IBVY856MT3M9O4K3BBOSK,3,1488084931992,"{""rt"": 58035, ""trial_type"": ""survey-multi-choice"", ""responses"": ""[\""3\"",\""True\"",\""$0.10\"",\""As many or as few as I wish\"",\""My earnings for each round are equal to the <i>sum</i> of the values of all locations I visit (minus the cost of making observations), and I will be paid the earnings from one of the 20 rounds.\"",\""All of the above.\""]"", ""internal_node_id"": ""0.0-0.1-1.1"", ""time_elapsed"": 411515, ""questions"": ""[\""How many flights are there per round?\"",\""True or false: The hidden values will change each time I start a new round.\"",\""How much does it cost to observe each hidden value?\"",\""How many hidden values am I allowed to observe in each round?\"",\""Which statement is TRUE?\"",\""What does the feedback teach me?\""]"", ""correct"": [true, true, true, true, true, true], ""trial_index"": 3}"
A10ZOUOZZ3EOAJ:3ZOTGHDK5IBVY856MT3M9O4K3BBOSK,4,1488084988499,"{""rt"": [44927, 1120, 202], ""trial_type"": ""graph"", ""infoCost"": 0.1, ""minTime"": 45, ""delays"": [0, 0, 0], ""actionTimes"": [44928, 46571, 48128], ""time_elapsed"": 468022, ""actions"": [""down"", ""down"", ""right""], ""trialIndex"": 1, ""score"": 38.4, ""trial_index"": 4, ""internal_node_id"": ""0.0-1.0-0.0"", ""clickTimes"": [8130, 10936, 13193, 15200, 18318, 22317, 23864, 25646, 26896, 28161, 30817, 32364, 33410, 34753, 35816, 36983], ""path"": [1, 5, 9, 17], ""trialID"": 12, ""clicks"": [""3"", ""4"", ""5"", ""2"", ""14"", ""15"", ""8"", ""7"", ""12"", ""13"", ""6"", ""10"", ""11"", ""9"", ""17"", ""16""], ""condition"": 1}"
A10ZOUOZZ3EOAJ:3ZOTGHDK5IBVY856MT3M9O4K3BBOSK,5,1488085040553,"{""rt"": [23381, 23, 2], ""trial_type"": ""graph"", ""infoCost"": 0.1, ""minTime"": 45, ""delays"": [0, 0, 0], ""actionTimes"": [23381, 24968, 26668], ""time_elapsed"": 520076, ""actions"": [""up"", ""up"", ""right""], ""trialIndex"": 2, ""score"": 46, ""trial_index"": 5, ""internal_node_id"": ""0.0-1.0-1.0"", ""clickTimes"": [2695, 5981, 6905, 8084, 9914, 11570, 12460, 14600, 15695, 16689], ""path"": [1, 3, 7, 13], ""trialID"": 13, ""clicks"": [""3"", ""4"", ""5"", ""2"", ""6"", ""10"", ""11"", ""7"", ""12"", ""13""], ""condition"": 1}"
A10ZOUOZZ3EOAJ:3ZOTGHDK5IBVY856MT3M9O4K3BBOSK,6,1488085090973,"{""rt"": [24462, 131, 3], ""trial_type"": ""graph"", ""infoCost"": 0.1, ""minTime"": 45, ""delays"": [0, 0, 0], ""actionTimes"": [24462, 25713, 27328], ""time_elapsed"": 570496, ""actions"": [""right"", ""right"", ""down""], ""trialIndex"": 3, ""score"": 36.6, ""trial_index"": 6, ""internal_node_id"": ""0.0-1.0-2.0"", ""clickTimes"": [2705, 3922, 4866, 5868, 7565, 8521, 9596, 13316, 14348, 15437, 16640, 17562, 18421, 20433], ""path"": [1, 2, 6, 11], ""trialID"": 6, ""clicks"": [""4"", ""3"", ""2"", ""5"", ""9"", ""16"", ""17"", ""7"", ""13"", ""12"", ""6"", ""10"", ""11"", ""8""], ""condition"": 1}"
A10ZOUOZZ3EOAJ:3ZOTGHDK5IBVY856MT3M9O4K3BBOSK,7,1488085139627,"{""rt"": [36260, 2, 2], ""trial_type"": ""graph"", ""infoCost"": 0.1, ""minTime"": 45, ""delays"": [0, 0, 0], ""actionTimes"": [36260, 37396, 39012], ""time_elapsed"": 619150, ""actions"": [""up"", ""up"", ""right""], ""trialIndex"": 4, ""score"": 37.6, ""trial_index"": 7, ""internal_node_id"": ""0.0-1.0-3.0"", ""clickTimes"": [1481, 2668, 3730, 4983, 6559, 7604, 8644, 11035, 13526, 16323, 17275, 18682, 19887, 21135], ""path"": [1, 3, 7, 13], ""trialID"": 18, ""clicks"": [""3"", ""4"", ""5"", ""2"", ""7"", ""12"", ""13"", ""9"", ""6"", ""10"", ""11"", ""8"", ""14"", ""15""], ""condition"": 1}"
A10ZOUOZZ3EOAJ:3ZOTGHDK5IBVY856MT3M9O4K3BBOSK,8,1488085187942,"{""rt"": [27844, 476, 841], ""trial_type"": ""graph"", ""infoCost"": 0.1, ""minTime"": 45, ""delays"": [0, 0, 0], ""actionTimes"": [27845, 28848, 31035], ""time_elapsed"": 667465, ""actions"": [""left"", ""left"", ""up""], ""trialIndex"": 5, ""score"": 38.4, ""trial_index"": 8, ""internal_node_id"": ""0.0-1.0-4.0"", ""clickTimes"": [985, 2306, 3459, 4475, 5866, 6862, 8227, 10075, 10992, 12026, 14168, 15482, 16576, 20169, 21731, 22625], ""path"": [1, 4, 8, 14], ""trialID"": 0, ""clicks"": [""3"", ""2"", ""5"", ""4"", ""9"", ""16"", ""17"", ""7"", ""12"", ""13"", ""8"", ""14"", ""15"", ""6"", ""11"", ""10""], ""condition"": 1}"
A10ZOUOZZ3EOAJ:3ZOTGHDK5IBVY856MT3M9O4K3BBOSK,9,1488085237082,"{""rt"": [40014, 494, 542], ""trial_type"": ""graph"", ""infoCost"": 0.1, ""minTime"": 45, ""delays"": [0, 0, 0], ""actionTimes"": [40014, 41051, 42913], ""time_elapsed"": 716605, ""actions"": [""down"", ""down"", ""left""], ""trialIndex"": 6, ""score"": 32.4, ""trial_index"": 9, ""internal_node_id"": ""0.0-1.0-5.0"", ""clickTimes"": [3206, 4996, 6394, 7274, 8285, 9410, 10301, 11718, 12844, 13805, 15879, 17111, 18424, 23156, 24257, 25445], ""path"": [1, 5, 9, 16], ""trialID"": 7, ""clicks"": [""3"", ""4"", ""5"", ""2"", ""6"", ""10"", ""11"", ""7"", ""12"", ""13"", ""8"", ""14"", ""15"", ""9"", ""16"", ""17""], ""condition"": 1}"
A10ZOUOZZ3EOAJ:3ZOTGHDK5IBVY856MT3M9O4K3BBOSK,10,1488085289183,"{""rt"": [25860, 305, 2], ""trial_type"": ""graph"", ""infoCost"": 0.1, ""minTime"": 45, ""delays"": [0, 0, 0], ""actionTimes"": [25861, 26687, 28037], ""time_elapsed"": 768706, ""actions"": [""up"", ""up"", ""left""], ""trialIndex"": 7, ""score"": 39.4, ""trial_index"": 10, ""internal_node_id"": ""0.0-1.0-6.0"", ""clickTimes"": [1853, 2896, 3866, 4886, 6229, 8073, 9542, 11138, 12760, 14653, 17281, 18182, 19072, 20478, 21479, 22307], ""path"": [1, 3, 7, 12], ""trialID"": 8, ""clicks"": [""3"", ""5"", ""2"", ""4"", ""7"", ""9"", ""13"", ""16"", ""17"", ""12"", ""8"", ""14"", ""15"", ""6"", ""10"", ""11""], ""condition"": 1}"
A10ZOUOZZ3EOAJ:3ZOTGHDK5IBVY856MT3M9O4K3BBOSK,11,1488085337579,"{""rt"": [25685, 3, 37], ""trial_type"": ""graph"", ""infoCost"": 0.1, ""minTime"": 45, ""delays"": [0, 0, 0], ""actionTimes"": [25685, 27436, 29210], ""time_elapsed"": 817102, ""actions"": [""left"", ""left"", ""up""], ""trialIndex"": 8, ""score"": 38.7, ""trial_index"": 11, ""internal_node_id"": ""0.0-1.0-7.0"", ""clickTimes"": [1263, 2280, 3248, 4218, 5748, 6672, 7671, 10076, 11216, 12123, 13732, 18108, 21687], ""path"": [1, 4, 8, 14], ""trialID"": 11, ""clicks"": [""3"", ""5"", ""2"", ""4"", ""9"", ""16"", ""17"", ""8"", ""14"", ""15"", ""6"", ""10"", ""7""], ""condition"": 1}"
A10ZOUOZZ3EOAJ:3ZOTGHDK5IBVY856MT3M9O4K3BBOSK,12,1488085385974,"{""rt"": [31973, 3, 79], ""trial_type"": ""graph"", ""infoCost"": 0.1, ""minTime"": 45, ""delays"": [0, 0, 0], ""actionTimes"": [31973, 33306, 35006], ""time_elapsed"": 865497, ""actions"": [""right"", ""right"", ""up""], ""trialIndex"": 9, ""score"": 32.5, ""trial_index"": 12, ""internal_node_id"": ""0.0-1.0-8.0"", ""clickTimes"": [1723, 2729, 3634, 4495, 5791, 7587, 8556, 9728, 12415, 13307, 14337, 15925, 17792, 18915, 21417], ""path"": [1, 2, 6, 10], ""trialID"": 3, ""clicks"": [""3"", ""5"", ""2"", ""4"", ""9"", ""17"", ""16"", ""7"", ""6"", ""10"", ""11"", ""13"", ""8"", ""14"", ""15""], ""condition"": 1}"
A10ZOUOZZ3EOAJ:3ZOTGHDK5IBVY856MT3M9O4K3BBOSK,13,1488085434760,"{""rt"": [27948, 382, 34], ""trial_type"": ""graph"", ""infoCost"": 0.1, ""minTime"": 45, ""delays"": [0, 0, 0], ""actionTimes"": [27948, 28859, 30272], ""time_elapsed"": 914283, ""actions"": [""up"", ""up"", ""left""], ""trialIndex"": 10, ""score"": 35.4, ""trial_index"": 13, ""internal_node_id"": ""0.0-1.0-9.0"", ""clickTimes"": [1027, 2193, 3028, 4210, 5739, 6834, 8068, 9384, 10385, 11568, 14276, 15411, 16302, 17583, 18744, 21241], ""path"": [1, 3, 7, 12], ""trialID"": 15, ""clicks"": [""3"", ""5"", ""2"", ""4"", ""7"", ""12"", ""13"", ""8"", ""14"", ""15"", ""6"", ""10"", ""11"", ""9"", ""16"", ""17""], ""condition"": 1}"
A10ZOUOZZ3EOAJ:3ZOTGHDK5IBVY856MT3M9O4K3BBOSK,14,1488085485948,"{""rt"": [19127, 3, 4], ""trial_type"": ""graph"", ""infoCost"": 0.1, ""minTime"": 45, ""delays"": [0, 0, 0], ""actionTimes"": [19127, 21807, 23752], ""time_elapsed"": 965471, ""actions"": [""up"", ""up"", ""right""], ""trialIndex"": 11, ""score"": 39.7, ""trial_index"": 14, ""internal_node_id"": ""0.0-1.0-10.0"", ""clickTimes"": [929, 1942, 2850, 3830, 4939, 5916, 7037, 9129, 10410, 11707, 12808, 14461, 15290], ""path"": [1, 3, 7, 13], ""trialID"": 19, ""clicks"": [""3"", ""5"", ""2"", ""4"", ""7"", ""12"", ""13"", ""6"", ""11"", ""9"", ""16"", ""8"", ""14""], ""condition"": 1}"
A10ZOUOZZ3EOAJ:3ZOTGHDK5IBVY856MT3M9O4K3BBOSK,15,1488085559505,"{""rt"": [65525, 255, 107], ""trial_type"": ""graph"", ""infoCost"": 0.1, ""minTime"": 45, ""delays"": [0, 0, 0], ""actionTimes"": [65526, 66309, 67838], ""time_elapsed"": 1039028, ""actions"": [""right"", ""right"", ""down""], ""trialIndex"": 12, ""score"": 42.4, ""trial_index"": 15, ""internal_node_id"": ""0.0-1.0-11.0"", ""clickTimes"": [2594, 3667, 4580, 5537, 6956, 8205, 9861, 11414, 12376, 14036, 14947, 17489, 18423, 27838, 28773, 29807], ""path"": [1, 2, 6, 11], ""trialID"": 9, ""clicks"": [""3"", ""5"", ""2"", ""4"", ""7"", ""6"", ""9"", ""13"", ""12"", ""10"", ""11"", ""17"", ""16"", ""8"", ""14"", ""15""], ""condition"": 1}"
A10ZOUOZZ3EOAJ:3ZOTGHDK5IBVY856MT3M9O4K3BBOSK,16,1488085607972,"{""rt"": [33111, 226, 3], ""trial_type"": ""graph"", ""infoCost"": 0.1, ""minTime"": 45, ""delays"": [0, 0, 0], ""actionTimes"": [33111, 33866, 35269], ""time_elapsed"": 1087495, ""actions"": [""right"", ""right"", ""up""], ""trialIndex"": 13, ""score"": 20.4, ""trial_index"": 16, ""internal_node_id"": ""0.0-1.0-12.0"", ""clickTimes"": [1629, 2636, 3374, 4317, 5656, 6787, 7860, 9609, 11202, 12326, 13578, 14956, 18768, 20268, 21252, 22075], ""path"": [1, 2, 6, 10], ""trialID"": 16, ""clicks"": [""3"", ""4"", ""5"", ""2"", ""6"", ""10"", ""11"", ""7"", ""13"", ""12"", ""8"", ""14"", ""15"", ""9"", ""16"", ""17""], ""condition"": 1}"
A10ZOUOZZ3EOAJ:3ZOTGHDK5IBVY856MT3M9O4K3BBOSK,17,1488085656304,"{""rt"": [19410, 3, 2], ""trial_type"": ""graph"", ""infoCost"": 0.1, ""minTime"": 45, ""delays"": [0, 0, 0], ""actionTimes"": [19410, 20504, 22130], ""time_elapsed"": 1135827, ""actions"": [""down"", ""down"", ""left""], ""trialIndex"": 14, ""score"": 44.7, ""trial_index"": 17, ""internal_node_id"": ""0.0-1.0-13.0"", ""clickTimes"": [1645, 2518, 3455, 4533, 5785, 6737, 7580, 9145, 11085, 12128, 13170, 14113, 15221], ""path"": [1, 5, 9, 16], ""trialID"": 1, ""clicks"": [""3"", ""5"", ""2"", ""4"", ""7"", ""12"", ""13"", ""6"", ""10"", ""11"", ""9"", ""17"", ""16""], ""condition"": 1}"
A10ZOUOZZ3EOAJ:3ZOTGHDK5IBVY856MT3M9O4K3BBOSK,18,1488085709014,"{""rt"": [22459, 260, 2], ""trial_type"": ""graph"", ""infoCost"": 0.1, ""minTime"": 45, ""delays"": [0, 0, 0], ""actionTimes"": [22460, 23240, 24632], ""time_elapsed"": 1188537, ""actions"": [""down"", ""down"", ""left""], ""trialIndex"": 15, ""score"": 36.4, ""trial_index"": 18, ""internal_node_id"": ""0.0-1.0-14.0"", ""clickTimes"": [726, 1743, 2649, 3473, 4665, 5633, 6832, 7986, 9054, 10258, 11460, 12552, 13648, 17194, 18163, 19272], ""path"": [1, 5, 9, 16], ""trialID"": 14, ""clicks"": [""3"", ""5"", ""4"", ""2"", ""8"", ""14"", ""15"", ""7"", ""12"", ""13"", ""6"", ""10"", ""11"", ""9"", ""17"", ""16""], ""condition"": 1}"
A10ZOUOZZ3EOAJ:3ZOTGHDK5IBVY856MT3M9O4K3BBOSK,19,1488085764141,"{""rt"": [21832, 411, 2], ""trial_type"": ""graph"", ""infoCost"": 0.1, ""minTime"": 45, ""delays"": [0, 0, 0], ""actionTimes"": [21832, 22774, 24250], ""time_elapsed"": 1243663, ""actions"": [""right"", ""right"", ""down""], ""trialIndex"": 16, ""score"": 36.4, ""trial_index"": 19, ""internal_node_id"": ""0.0-1.0-15.0"", ""clickTimes"": [1959, 2985, 4350, 5332, 6271, 7256, 8162, 9520, 10693, 11546, 12724, 13818, 14850, 16051, 17509, 18364], ""path"": [1, 2, 6, 11], ""trialID"": 17, ""clicks"": [""3"", ""5"", ""4"", ""2"", ""6"", ""10"", ""11"", ""7"", ""13"", ""12"", ""9"", ""16"", ""17"", ""8"", ""14"", ""15""], ""condition"": 1}"
A10ZOUOZZ3EOAJ:3ZOTGHDK5IBVY856MT3M9O4K3BBOSK,20,1488085812486,"{""rt"": [22000, 3, 29], ""trial_type"": ""graph"", ""infoCost"": 0.1, ""minTime"": 45, ""delays"": [0, 0, 0], ""actionTimes"": [22000, 23914, 25845], ""time_elapsed"": 1292009, ""actions"": [""left"", ""left"", ""up""], ""trialIndex"": 17, ""score"": 32.7, ""trial_index"": 20, ""internal_node_id"": ""0.0-1.0-16.0"", ""clickTimes"": [1811, 4008, 4932, 5721, 6776, 8609, 9954, 11125, 12233, 13619, 15218, 16110, 18326], ""path"": [1, 4, 8, 14], ""trialID"": 5, ""clicks"": [""3"", ""4"", ""5"", ""2"", ""7"", ""6"", ""9"", ""8"", ""14"", ""15"", ""10"", ""11"", ""13""], ""condition"": 1}"
A10ZOUOZZ3EOAJ:3ZOTGHDK5IBVY856MT3M9O4K3BBOSK,21,1488085860429,"{""rt"": [27472, 4, 2], ""trial_type"": ""graph"", ""infoCost"": 0.1, ""minTime"": 45, ""delays"": [0, 0, 0], ""actionTimes"": [27473, 28605, 30487], ""time_elapsed"": 1339952, ""actions"": [""down"", ""down"", ""right""], ""trialIndex"": 18, ""score"": 40.6, ""trial_index"": 21, ""internal_node_id"": ""0.0-1.0-17.0"", ""clickTimes"": [962, 1915, 3160, 4113, 5066, 5984, 6861, 8950, 10050, 10972, 17597, 18846, 22787, 25014], ""path"": [1, 5, 9, 17], ""trialID"": 4, ""clicks"": [""3"", ""5"", ""2"", ""4"", ""8"", ""14"", ""15"", ""9"", ""16"", ""17"", ""6"", ""10"", ""11"", ""7""], ""condition"": 1}"
A10ZOUOZZ3EOAJ:3ZOTGHDK5IBVY856MT3M9O4K3BBOSK,22,1488085910784,"{""rt"": [25063, 3, 2], ""trial_type"": ""graph"", ""infoCost"": 0.1, ""minTime"": 45, ""delays"": [0, 0, 0], ""actionTimes"": [25063, 26518, 28297], ""time_elapsed"": 1390306, ""actions"": [""right"", ""right"", ""up""], ""trialIndex"": 19, ""score"": 32.5, ""trial_index"": 22, ""internal_node_id"": ""0.0-1.0-18.0"", ""clickTimes"": [1223, 2333, 3404, 4769, 6425, 8363, 10364, 11473, 12316, 13548, 14394, 15377, 17172, 18324, 19437], ""path"": [1, 2, 6, 10], ""trialID"": 2, ""clicks"": [""3"", ""5"", ""4"", ""2"", ""9"", ""16"", ""8"", ""14"", ""15"", ""6"", ""10"", ""11"", ""7"", ""13"", ""12""], ""condition"": 1}"
A10ZOUOZZ3EOAJ:3ZOTGHDK5IBVY856MT3M9O4K3BBOSK,23,1488085959212,"{""rt"": [23439, 3, 40], ""trial_type"": ""graph"", ""infoCost"": 0.1, ""minTime"": 45, ""delays"": [0, 0, 0], ""actionTimes"": [23440, 24627, 26532], ""time_elapsed"": 1438735, ""actions"": [""left"", ""left"", ""down""], ""trialIndex"": 20, ""score"": 36.6, ""trial_index"": 23, ""internal_node_id"": ""0.0-1.0-19.0"", ""clickTimes"": [946, 1908, 3071, 3930, 5102, 6072, 6961, 7920, 8731, 9555, 11951, 13228, 14712, 19930], ""path"": [1, 4, 8, 15], ""trialID"": 10, ""clicks"": [""3"", ""5"", ""2"", ""4"", ""9"", ""16"", ""17"", ""8"", ""14"", ""15"", ""6"", ""10"", ""11"", ""7""], ""condition"": 1}"
A10ZOUOZZ3EOAJ:3ZOTGHDK5IBVY856MT3M9O4K3BBOSK,24,1488085977290,"{""rt"": 17041, ""trial_type"": ""button-response"", ""button_pressed"": 0, ""stimulus"": ""<h1 id=\""thiscompletesthehit\"">This completes the HIT</h1>\n\n<p>One or your trials has been randomly selected and we will pay you 5% of your profit on that trial as a bonus. You will be awarded a bonus of $1.88</p>"", ""internal_node_id"": ""0.0-2.0"", ""time_elapsed"": 1456812, ""trial_index"": 24}"
A142ZRU284W9O:3X31TUMD7XMNY33FWI8AL6DHI6U1LX,0,1488084163706,"{""rt"": 19227, ""trial_type"": ""instructions"", ""view_history"": ""[{\""page_index\"":0,\""viewing_time\"":3276},{\""page_index\"":1,\""viewing_time\"":9244},{\""page_index\"":2,\""viewing_time\"":4080},{\""page_index\"":3,\""viewing_time\"":2625}]"", ""internal_node_id"": ""0.0-0.0-0.0"", ""time_elapsed"": 19230, ""trial_index"": 0}"
A142ZRU284W9O:3X31TUMD7XMNY33FWI8AL6DHI6U1LX,1,1488084196184,"{""rt"": 29773, ""trial_type"": ""survey-multi-choice"", ""responses"": ""[\""4\"",\""True\"",\""$0.10\"",\""As many or as few as I wish\"",\""My earnings for each round are equal to the <i>sum</i> of the values of all locations I visit (minus the cost of making observations), and I will be paid the earnings from one of the 20 rounds.\"",\""All of the above.\""]"", ""internal_node_id"": ""0.0-0.0-1.0"", ""time_elapsed"": 51709, ""questions"": ""[\""How many flights are there per round?\"",\""True or false: The hidden values will change each time I start a new round.\"",\""How much does it cost to observe each hidden value?\"",\""How many hidden values am I allowed to observe in each round?\"",\""Which statement is TRUE?\"",\""What does the feedback teach me?\""]"", ""correct"": [false, true, true, true, true, true], ""trial_index"": 1}"
A142ZRU284W9O:3X31TUMD7XMNY33FWI8AL6DHI6U1LX,2,1488084231676,"{""rt"": 34482, ""trial_type"": ""instructions"", ""view_history"": ""[{\""page_index\"":0,\""viewing_time\"":12525},{\""page_index\"":1,\""viewing_time\"":12072},{\""page_index\"":2,\""viewing_time\"":6954},{\""page_index\"":3,\""viewing_time\"":2930}]"", ""internal_node_id"": ""0.0-0.1-0.1"", ""time_elapsed"": 87200, ""trial_index"": 2}"
A142ZRU284W9O:3X31TUMD7XMNY33FWI8AL6DHI6U1LX,3,1488084258587,"{""rt"": 22436, ""trial_type"": ""survey-multi-choice"", ""responses"": ""[\""2\"",\""True\"",\""$0.10\"",\""As many or as few as I wish\"",\""My earnings for each round are equal to the <i>sum</i> of the values of all locations I visit (minus the cost of making observations), and I will be paid the earnings from one of the 20 rounds.\"",\""All of the above.\""]"", ""internal_node_id"": ""0.0-0.1-1.1"", ""time_elapsed"": 114111, ""questions"": ""[\""How many flights are there per round?\"",\""True or false: The hidden values will change each time I start a new round.\"",\""How much does it cost to observe each hidden value?\"",\""How many hidden values am I allowed to observe in each round?\"",\""Which statement is TRUE?\"",\""What does the feedback teach me?\""]"", ""correct"": [false, true, true, true, true, true], ""trial_index"": 3}"
A142ZRU284W9O:3X31TUMD7XMNY33FWI8AL6DHI6U1LX,4,1488084279631,"{""rt"": 20033, ""trial_type"": ""instructions"", ""view_history"": ""[{\""page_index\"":0,\""viewing_time\"":12228},{\""page_index\"":1,\""viewing_time\"":1710},{\""page_index\"":2,\""viewing_time\"":3525},{\""page_index\"":3,\""viewing_time\"":2569}]"", ""internal_node_id"": ""0.0-0.2-0.2"", ""time_elapsed"": 135156, ""trial_index"": 4}"
A142ZRU284W9O:3X31TUMD7XMNY33FWI8AL6DHI6U1LX,5,1488084297706,"{""rt"": 17030, ""trial_type"": ""survey-multi-choice"", ""responses"": ""[\""3\"",\""True\"",\""$0.10\"",\""As many or as few as I wish\"",\""My earnings for each round are equal to the <i>sum</i> of the values of all locations I visit (minus the cost of making observations), and I will be paid the earnings from one of the 20 rounds.\"",\""All of the above.\""]"", ""internal_node_id"": ""0.0-0.2-1.2"", ""time_elapsed"": 153231, ""questions"": ""[\""How many flights are there per round?\"",\""True or false: The hidden values will change each time I start a new round.\"",\""How much does it cost to observe each hidden value?\"",\""How many hidden values am I allowed to observe in each round?\"",\""Which statement is TRUE?\"",\""What does the feedback teach me?\""]"", ""correct"": [true, true, true, true, true, true], ""trial_index"": 5}"
A142ZRU284W9O:3X31TUMD7XMNY33FWI8AL6DHI6U1LX,6,1488084379478,"{""rt"": [4924, 45252, 101], ""trial_type"": ""graph"", ""infoCost"": 0.1, ""minTime"": 45, ""delays"": [15, 0, 5], ""actionTimes"": [4926, 66585, 68088], ""time_elapsed"": 235003, ""actions"": [""right"", ""right"", ""up""], ""trialIndex"": 1, ""score"": 28, ""trial_index"": 6, ""internal_node_id"": ""0.0-1.0-0.0"", ""clickTimes"": [], ""path"": [1, 2, 6, 10], ""trialID"": 8, ""clicks"": [], ""condition"": 1}"
A142ZRU284W9O:3X31TUMD7XMNY33FWI8AL6DHI6U1LX,7,1488084428261,"{""rt"": [15513, 11, 1], ""trial_type"": ""graph"", ""infoCost"": 0.1, ""minTime"": 45, ""delays"": [0, 0, 0], ""actionTimes"": [15514, 16489, 17888], ""time_elapsed"": 283786, ""actions"": [""down"", ""down"", ""right""], ""trialIndex"": 2, ""score"": 38.8, ""trial_index"": 7, ""internal_node_id"": ""0.0-1.0-1.0"", ""clickTimes"": [1876, 2730, 3401, 3981, 4770, 5496, 6355, 6959, 11857, 12365, 13889, 14265], ""path"": [1, 5, 9, 17], ""trialID"": 12, ""clicks"": [""12"", ""13"", ""10"", ""11"", ""17"", ""16"", ""15"", ""14"", ""5"", ""9"", ""6"", ""2""], ""condition"": 1}"
A142ZRU284W9O:3X31TUMD7XMNY33FWI8AL6DHI6U1LX,8,1488084508593,"{""rt"": [11595, 3, 2], ""trial_type"": ""graph"", ""infoCost"": 0.1, ""minTime"": 45, ""delays"": [0, 0, 0], ""actionTimes"": [11597, 12542, 13773], ""time_elapsed"": 364118, ""actions"": [""left"", ""left"", ""up""], ""trialIndex"": 3, ""score"": 38.8, ""trial_index"": 8, ""internal_node_id"": ""0.0-1.0-2.0"", ""clickTimes"": [1730, 2452, 3075, 3825, 4739, 5370, 6275, 6808, 7998, 8613, 9505, 10315], ""path"": [1, 4, 8, 14], ""trialID"": 11, ""clicks"": [""13"", ""12"", ""10"", ""11"", ""17"", ""16"", ""14"", ""15"", ""6"", ""2"", ""4"", ""8""], ""condition"": 1}"
A142ZRU284W9O:3X31TUMD7XMNY33FWI8AL6DHI6U1LX,9,1488084602070,"{""rt"": [16295, 6, 6], ""trial_type"": ""graph"", ""infoCost"": 0.1, ""minTime"": 45, ""delays"": [0, 0, 0], ""actionTimes"": [16295, 17512, 18957], ""time_elapsed"": 457594, ""actions"": [""down"", ""down"", ""left""], ""trialIndex"": 4, ""score"": 36.8, ""trial_index"": 9, ""internal_node_id"": ""0.0-1.0-3.0"", ""clickTimes"": [6194, 6884, 7655, 8304, 9025, 9770, 10507, 11132, 11836, 12395, 13380, 14153], ""path"": [1, 5, 9, 16], ""trialID"": 14, ""clicks"": [""12"", ""13"", ""10"", ""11"", ""17"", ""16"", ""15"", ""14"", ""5"", ""9"", ""2"", ""6""], ""condition"": 1}"
A142ZRU284W9O:3X31TUMD7XMNY33FWI8AL6DHI6U1LX,10,1488084705821,"{""rt"": [11364, 2135, 4], ""trial_type"": ""graph"", ""infoCost"": 0.1, ""minTime"": 45, ""delays"": [1, 0, 0], ""actionTimes"": [11364, 16202, 17830], ""time_elapsed"": 561346, ""actions"": [""down"", ""down"", ""right""], ""trialIndex"": 5, ""score"": 32.8, ""trial_index"": 10, ""internal_node_id"": ""0.0-1.0-4.0"", ""clickTimes"": [828, 1874, 2518, 3492, 4134, 4732, 5474, 6085, 7026, 8188, 8945, 9655], ""path"": [1, 5, 9, 17], ""trialID"": 7, ""clicks"": [""12"", ""13"", ""10"", ""11"", ""17"", ""16"", ""14"", ""15"", ""4"", ""5"", ""8"", ""9""], ""condition"": 1}"
A142ZRU284W9O:3X31TUMD7XMNY33FWI8AL6DHI6U1LX,11,1488084803930,"{""rt"": [27958, 326, 3], ""trial_type"": ""graph"", ""infoCost"": 0.1, ""minTime"": 45, ""delays"": [0, 0, 0], ""actionTimes"": [27959, 29347, 31008], ""time_elapsed"": 659455, ""actions"": [""down"", ""down"", ""left""], ""trialIndex"": 6, ""score"": 44.6, ""trial_index"": 11, ""internal_node_id"": ""0.0-1.0-5.0"", ""clickTimes"": [12833, 13523, 14460, 15100, 15672, 16290, 17132, 17899, 18973, 19813, 20478, 20884, 26502, 26923], ""path"": [1, 5, 9, 16], ""trialID"": 1, ""clicks"": [""13"", ""12"", ""10"", ""11"", ""17"", ""16"", ""15"", ""14"", ""4"", ""8"", ""2"", ""6"", ""9"", ""5""], ""condition"": 1}"
A142ZRU284W9O:3X31TUMD7XMNY33FWI8AL6DHI6U1LX,12,1488084881047,"{""rt"": [16479, 31, 3], ""trial_type"": ""graph"", ""infoCost"": 0.1, ""minTime"": 45, ""delays"": [0, 0, 0], ""actionTimes"": [16480, 18118, 19390], ""time_elapsed"": 736572, ""actions"": [""right"", ""right"", ""down""], ""trialIndex"": 7, ""score"": 36.8, ""trial_index"": 12, ""internal_node_id"": ""0.0-1.0-6.0"", ""clickTimes"": [5028, 5675, 6291, 6965, 7988, 8678, 9468, 10262, 11270, 11758, 12724, 14611], ""path"": [1, 2, 6, 11], ""trialID"": 17, ""clicks"": [""12"", ""13"", ""10"", ""11"", ""17"", ""16"", ""15"", ""14"", ""2"", ""6"", ""5"", ""9""], ""condition"": 1}"
A142ZRU284W9O:3X31TUMD7XMNY33FWI8AL6DHI6U1LX,13,1488084987326,"{""rt"": [96512, 543, 7], ""trial_type"": ""graph"", ""infoCost"": 0.1, ""minTime"": 45, ""delays"": [1, 0, 0], ""actionTimes"": [96514, 99313, 101139], ""time_elapsed"": 842851, ""actions"": [""right"", ""right"", ""up""], ""trialIndex"": 8, ""score"": 32.8, ""trial_index"": 13, ""internal_node_id"": ""0.0-1.0-7.0"", ""clickTimes"": [87656, 88208, 89290, 89745, 90992, 91530, 92007, 92486, 93741, 94279, 94811, 95202], ""path"": [1, 2, 6, 10], ""trialID"": 2, ""clicks"": [""12"", ""13"", ""11"", ""10"", ""17"", ""16"", ""15"", ""14"", ""7"", ""3"", ""2"", ""6""], ""condition"": 1}"
A142ZRU284W9O:3X31TUMD7XMNY33FWI8AL6DHI6U1LX,14,1488085039830,"{""rt"": [13425, 514, 2], ""trial_type"": ""graph"", ""infoCost"": 0.1, ""minTime"": 45, ""delays"": [0, 0, 0], ""actionTimes"": [13425, 14446, 16056], ""time_elapsed"": 895355, ""actions"": [""up"", ""up"", ""left""], ""trialIndex"": 9, ""score"": 35.4, ""trial_index"": 14, ""internal_node_id"": ""0.0-1.0-8.0"", ""clickTimes"": [2607, 2869, 3322, 3820, 4659, 5742, 6153, 6736, 7385, 7861, 8223, 8974, 9629, 10111, 10442, 10883], ""path"": [1, 3, 7, 12], ""trialID"": 15, ""clicks"": [""12"", ""7"", ""13"", ""3"", ""10"", ""6"", ""11"", ""2"", ""17"", ""9"", ""16"", ""5"", ""15"", ""8"", ""14"", ""4""], ""condition"": 1}"
A142ZRU284W9O:3X31TUMD7XMNY33FWI8AL6DHI6U1LX,15,1488085099014,"{""rt"": [17247, 1350, 4], ""trial_type"": ""graph"", ""infoCost"": 0.1, ""minTime"": 45, ""delays"": [2, 0, 0], ""actionTimes"": [17247, 22256, 24119], ""time_elapsed"": 954539, ""actions"": [""down"", ""down"", ""left""], ""trialIndex"": 10, ""score"": 41.2, ""trial_index"": 15, ""internal_node_id"": ""0.0-1.0-9.0"", ""clickTimes"": [9365, 9731, 10074, 10451, 11058, 12410, 14733, 15192], ""path"": [1, 5, 9, 16], ""trialID"": 9, ""clicks"": [""10"", ""6"", ""11"", ""2"", ""17"", ""16"", ""9"", ""5""], ""condition"": 1}"
A142ZRU284W9O:3X31TUMD7XMNY33FWI8AL6DHI6U1LX,16,1488085176738,"{""rt"": [8066, 6, 11], ""trial_type"": ""graph"", ""infoCost"": 0.1, ""minTime"": 45, ""delays"": [0, 0, 0], ""actionTimes"": [8066, 9696, 11036], ""time_elapsed"": 1032263, ""actions"": [""right"", ""right"", ""up""], ""trialIndex"": 11, ""score"": 32.8, ""trial_index"": 16, ""internal_node_id"": ""0.0-1.0-10.0"", ""clickTimes"": [971, 1877, 2314, 2956, 3502, 4040, 4627, 5222, 5634, 5963, 6674, 6972], ""path"": [1, 2, 6, 10], ""trialID"": 3, ""clicks"": [""12"", ""13"", ""10"", ""11"", ""17"", ""16"", ""15"", ""14"", ""8"", ""4"", ""6"", ""2""], ""condition"": 1}"
A142ZRU284W9O:3X31TUMD7XMNY33FWI8AL6DHI6U1LX,17,1488085240477,"{""rt"": [8202, 287, 2], ""trial_type"": ""graph"", ""infoCost"": 0.1, ""minTime"": 45, ""delays"": [0, 0, 0], ""actionTimes"": [8203, 9593, 11857], ""time_elapsed"": 1096002, ""actions"": [""left"", ""left"", ""up""], ""trialIndex"": 12, ""score"": 39, ""trial_index"": 17, ""internal_node_id"": ""0.0-1.0-11.0"", ""clickTimes"": [1037, 1733, 2232, 2872, 3568, 4357, 5093, 5667, 6438, 6809], ""path"": [1, 4, 8, 14], ""trialID"": 0, ""clicks"": [""12"", ""13"", ""10"", ""11"", ""17"", ""16"", ""15"", ""14"", ""4"", ""8""], ""condition"": 1}"
A142ZRU284W9O:3X31TUMD7XMNY33FWI8AL6DHI6U1LX,18,1488085322843,"{""rt"": [8458, 362, 20], ""trial_type"": ""graph"", ""infoCost"": 0.1, ""minTime"": 45, ""delays"": [0, 0, 0], ""actionTimes"": [8459, 10062, 11805], ""time_elapsed"": 1178368, ""actions"": [""up"", ""up"", ""right""], ""trialIndex"": 13, ""score"": 40, ""trial_index"": 18, ""internal_node_id"": ""0.0-1.0-12.0"", ""clickTimes"": [1462, 2245, 2996, 3714, 4173, 4752, 5288, 5705, 6602, 7041], ""path"": [1, 3, 7, 13], ""trialID"": 19, ""clicks"": [""13"", ""12"", ""14"", ""15"", ""16"", ""17"", ""11"", ""10"", ""7"", ""3""], ""condition"": 1}"
A142ZRU284W9O:3X31TUMD7XMNY33FWI8AL6DHI6U1LX,19,1488085388135,"{""rt"": [14906, 515, 272], ""trial_type"": ""graph"", ""infoCost"": 0.1, ""minTime"": 45, ""delays"": [1, 0, 0], ""actionTimes"": [14910, 17621, 19991], ""time_elapsed"": 1243660, ""actions"": [""right"", ""right"", ""up""], ""trialIndex"": 14, ""score"": 20.8, ""trial_index"": 19, ""internal_node_id"": ""0.0-1.0-13.0"", ""clickTimes"": [7240, 8577, 9093, 9647, 10146, 10724, 11294, 11827, 12333, 12872, 13546, 13871], ""path"": [1, 2, 6, 10], ""trialID"": 16, ""clicks"": [""12"", ""13"", ""10"", ""11"", ""17"", ""16"", ""15"", ""14"", ""4"", ""8"", ""2"", ""6""], ""condition"": 1}"
A142ZRU284W9O:3X31TUMD7XMNY33FWI8AL6DHI6U1LX,20,1488085473985,"{""rt"": [26916, 25, 4], ""trial_type"": ""graph"", ""infoCost"": 0.1, ""minTime"": 45, ""delays"": [0, 0, 0], ""actionTimes"": [26917, 28213, 30354], ""time_elapsed"": 1329510, ""actions"": [""left"", ""left"", ""down""], ""trialIndex"": 15, ""score"": 36.8, ""trial_index"": 20, ""internal_node_id"": ""0.0-1.0-14.0"", ""clickTimes"": [19043, 19060, 20155, 20794, 21660, 22261, 22778, 23293, 24130, 24497, 25737, 26115], ""path"": [1, 4, 8, 15], ""trialID"": 10, ""clicks"": [""10"", ""11"", ""13"", ""12"", ""14"", ""15"", ""16"", ""17"", ""7"", ""3"", ""8"", ""4""], ""condition"": 1}"
A142ZRU284W9O:3X31TUMD7XMNY33FWI8AL6DHI6U1LX,21,1488085524372,"{""rt"": [36842, 574, 2], ""trial_type"": ""graph"", ""infoCost"": 0.1, ""minTime"": 45, ""delays"": [0, 0, 0], ""actionTimes"": [36842, 38310, 39911], ""time_elapsed"": 1379897, ""actions"": [""up"", ""up"", ""right""], ""trialIndex"": 16, ""score"": 45.6, ""trial_index"": 21, ""internal_node_id"": ""0.0-1.0-15.0"", ""clickTimes"": [28070, 28623, 29293, 29834, 30232, 30827, 31427, 31824, 32764, 33012, 33834, 34477, 35209, 35560], ""path"": [1, 3, 7, 13], ""trialID"": 13, ""clicks"": [""13"", ""12"", ""14"", ""15"", ""16"", ""17"", ""11"", ""10"", ""5"", ""9"", ""4"", ""8"", ""3"", ""7""], ""condition"": 1}"
A142ZRU284W9O:3X31TUMD7XMNY33FWI8AL6DHI6U1LX,22,1488085622603,"{""rt"": [11550, 109, 3], ""trial_type"": ""graph"", ""infoCost"": 0.1, ""minTime"": 45, ""delays"": [0, 0, 0], ""actionTimes"": [11550, 12938, 14933], ""time_elapsed"": 1478128, ""actions"": [""up"", ""up"", ""right""], ""trialIndex"": 17, ""score"": 37.7, ""trial_index"": 22, ""internal_node_id"": ""0.0-1.0-16.0"", ""clickTimes"": [2558, 3262, 3773, 4356, 5426, 5981, 6756, 7277, 8016, 8392, 8848, 9130, 9919], ""path"": [1, 3, 7, 13], ""trialID"": 18, ""clicks"": [""10"", ""11"", ""17"", ""16"", ""14"", ""15"", ""8"", ""4"", ""12"", ""13"", ""7"", ""3"", ""9""], ""condition"": 1}"
A142ZRU284W9O:3X31TUMD7XMNY33FWI8AL6DHI6U1LX,23,1488085681083,"{""rt"": [32820, 3, 7], ""trial_type"": ""graph"", ""infoCost"": 0.1, ""minTime"": 45, ""delays"": [0, 0, 0], ""actionTimes"": [32825, 34257, 35819], ""time_elapsed"": 1536608, ""actions"": [""right"", ""right"", ""down""], ""trialIndex"": 18, ""score"": 36.8, ""trial_index"": 23, ""internal_node_id"": ""0.0-1.0-17.0"", ""clickTimes"": [25228, 25897, 26540, 27157, 27631, 28236, 28719, 29484, 30150, 30572, 31461, 31725], ""path"": [1, 2, 6, 11], ""trialID"": 6, ""clicks"": [""13"", ""12"", ""14"", ""15"", ""16"", ""17"", ""11"", ""10"", ""6"", ""2"", ""4"", ""8""], ""condition"": 1}"
A142ZRU284W9O:3X31TUMD7XMNY33FWI8AL6DHI6U1LX,24,1488085759077,"{""rt"": [9450, 5, 21], ""trial_type"": ""graph"", ""infoCost"": 0.1, ""minTime"": 45, ""delays"": [0, 0, 0], ""actionTimes"": [9450, 10807, 12647], ""time_elapsed"": 1614602, ""actions"": [""left"", ""left"", ""up""], ""trialIndex"": 19, ""score"": 32.8, ""trial_index"": 24, ""internal_node_id"": ""0.0-1.0-18.0"", ""clickTimes"": [1962, 2532, 3293, 3763, 4329, 4796, 5461, 5860, 6437, 6900, 7541, 8297], ""path"": [1, 4, 8, 14], ""trialID"": 5, ""clicks"": [""13"", ""12"", ""14"", ""15"", ""16"", ""17"", ""11"", ""10"", ""5"", ""9"", ""4"", ""8""], ""condition"": 1}"
A142ZRU284W9O:3X31TUMD7XMNY33FWI8AL6DHI6U1LX,25,1488085809161,"{""rt"": [17416, 317, 18], ""trial_type"": ""graph"", ""infoCost"": 0.1, ""minTime"": 45, ""delays"": [1, 0, 0], ""actionTimes"": [17417, 20171, 21982], ""time_elapsed"": 1664686, ""actions"": [""down"", ""down"", ""right""], ""trialIndex"": 20, ""score"": 41, ""trial_index"": 25, ""internal_node_id"": ""0.0-1.0-19.0"", ""clickTimes"": [10570, 11209, 11840, 12372, 12880, 13434, 13990, 14459, 15198, 15671], ""path"": [1, 5, 9, 17], ""trialID"": 4, ""clicks"": [""13"", ""12"", ""14"", ""15"", ""16"", ""17"", ""11"", ""10"", ""5"", ""9""], ""condition"": 1}"
A142ZRU284W9O:3X31TUMD7XMNY33FWI8AL6DHI6U1LX,26,1488085815620,"{""rt"": 5439, ""trial_type"": ""button-response"", ""button_pressed"": 0, ""stimulus"": ""<h1 id=\""thiscompletesthehit\"">This completes the HIT</h1>\n\n<p>One or your trials has been randomly selected and we will pay you 5% of your profit on that trial as a bonus. You will be awarded a bonus of $1.84</p>"", ""internal_node_id"": ""0.0-2.0"", ""time_elapsed"": 1671145, ""trial_index"": 26}"
A14ADQ7RUN6TDY:3JV9LGBJWTES83WFRT95KALHF0HGOS,0,1488084313648,"{""rt"": 156805, ""trial_type"": ""instructions"", ""view_history"": ""[{\""page_index\"":0,\""viewing_time\"":41724},{\""page_index\"":1,\""viewing_time\"":48871},{\""page_index\"":0,\""viewing_time\"":2883},{\""page_index\"":1,\""viewing_time\"":23202},{\""page_index\"":2,\""viewing_time\"":28568},{\""page_index\"":1,\""viewing_time\"":9238},{\""page_index\"":2,\""viewing_time\"":2318}]"", ""internal_node_id"": ""0.0-0.0-0.0"", ""time_elapsed"": 156806, ""trial_index"": 0}"
A14ADQ7RUN6TDY:3JV9LGBJWTES83WFRT95KALHF0HGOS,1,1488084384925,"{""rt"": 65866, ""trial_type"": ""survey-multi-choice"", ""responses"": ""[\""1\"",\""True\"",\""$0.10\"",\""As many or as few as I wish\"",\""My earnings for each round are equal to the value of one of the locations I visit (minus the cost of making observations), and I will actually be paid the earnings from one of the 20 rounds.\""]"", ""internal_node_id"": ""0.0-0.0-1.0"", ""time_elapsed"": 228084, ""questions"": ""[\""How many flights are there per round?\"",\""True or false: The hidden values will change each time I start a new round.\"",\""How much does it cost to observe each hidden value?\"",\""How many hidden values am I allowed to observe in each round?\"",\""Which statement is TRUE?\""]"", ""correct"": [false, true, true, true, false], ""trial_index"": 1}"
A14ADQ7RUN6TDY:3JV9LGBJWTES83WFRT95KALHF0HGOS,2,1488084476327,"{""rt"": 90397, ""trial_type"": ""instructions"", ""view_history"": ""[{\""page_index\"":0,\""viewing_time\"":46690},{\""page_index\"":1,\""viewing_time\"":23559},{\""page_index\"":2,\""viewing_time\"":20147}]"", ""internal_node_id"": ""0.0-0.1-0.1"", ""time_elapsed"": 319485, ""trial_index"": 2}"
A14ADQ7RUN6TDY:3JV9LGBJWTES83WFRT95KALHF0HGOS,3,1488084565105,"{""rt"": 85972, ""trial_type"": ""survey-multi-choice"", ""responses"": ""[\""1\"",\""True\"",\""$0.10\"",\""As many or as few as I wish\"",\""My earnings for each round are equal to the <i>sum</i> of the values of all locations I visit (minus the cost of making observations), and I will be paid the earnings from one of the 20 rounds.\""]"", ""internal_node_id"": ""0.0-0.1-1.1"", ""time_elapsed"": 408263, ""questions"": ""[\""How many flights are there per round?\"",\""True or false: The hidden values will change each time I start a new round.\"",\""How much does it cost to observe each hidden value?\"",\""How many hidden values am I allowed to observe in each round?\"",\""Which statement is TRUE?\""]"", ""correct"": [false, true, true, true, true], ""trial_index"": 3}"
A14ADQ7RUN6TDY:3JV9LGBJWTES83WFRT95KALHF0HGOS,4,1488084604992,"{""rt"": 38847, ""trial_type"": ""instructions"", ""view_history"": ""[{\""page_index\"":0,\""viewing_time\"":23573},{\""page_index\"":1,\""viewing_time\"":8072},{\""page_index\"":2,\""viewing_time\"":7200}]"", ""internal_node_id"": ""0.0-0.2-0.2"", ""time_elapsed"": 448150, ""trial_index"": 4}"
A14ADQ7RUN6TDY:3JV9LGBJWTES83WFRT95KALHF0HGOS,5,1488084743258,"{""rt"": 137191, ""trial_type"": ""survey-multi-choice"", ""responses"": ""[\""3\"",\""True\"",\""$0.10\"",\""As many or as few as I wish\"",\""My earnings for each round are equal to the <i>sum</i> of the values of all locations I visit (minus the cost of making observations), and I will be paid the earnings from one of the 20 rounds.\""]"", ""internal_node_id"": ""0.0-0.2-1.2"", ""time_elapsed"": 586417, ""questions"": ""[\""How many flights are there per round?\"",\""True or false: The hidden values will change each time I start a new round.\"",\""How much does it cost to observe each hidden value?\"",\""How many hidden values am I allowed to observe in each round?\"",\""Which statement is TRUE?\""]"", ""correct"": [true, true, true, true, true], ""trial_index"": 5}"
A14ADQ7RUN6TDY:3JV9LGBJWTES83WFRT95KALHF0HGOS,6,1488084803800,"{""rt"": [24880, 1229, 675], ""trial_type"": ""graph"", ""infoCost"": 0.1, ""minTime"": 45, ""delays"": [3, 3, 3], ""actionTimes"": [24882, 29906, 34634], ""time_elapsed"": 646959, ""actions"": [""down"", ""down"", ""left""], ""trialIndex"": 1, ""score"": 32.6, ""trial_index"": 6, ""internal_node_id"": ""0.0-1.0-0.0"", ""clickTimes"": [3029, 4119, 4851, 6107, 7367, 8235, 10306, 11379, 12069, 13140, 14576, 15196, 15933, 22426], ""path"": [1, 5, 9, 16], ""trialID"": 7, ""clicks"": [""2"", ""6"", ""10"", ""11"", ""4"", ""8"", ""3"", ""7"", ""12"", ""13"", ""5"", ""9"", ""16"", ""17""], ""condition"": 0}"
A14ADQ7RUN6TDY:3JV9LGBJWTES83WFRT95KALHF0HGOS,7,1488084864119,"{""rt"": [15461, 895, 804], ""trial_type"": ""graph"", ""infoCost"": 0.1, ""minTime"": 45, ""delays"": [3, 3, 3], ""actionTimes"": [15462, 20334, 25117], ""time_elapsed"": 707278, ""actions"": [""left"", ""left"", ""down""], ""trialIndex"": 2, ""score"": 31.6, ""trial_index"": 7, ""internal_node_id"": ""0.0-1.0-1.0"", ""clickTimes"": [1605, 3342, 4361, 5190], ""path"": [1, 4, 8, 15], ""trialID"": 8, ""clicks"": [""4"", ""8"", ""14"", ""15""], ""condition"": 0}"
A14ADQ7RUN6TDY:3JV9LGBJWTES83WFRT95KALHF0HGOS,8,1488084922840,"{""rt"": [21735, 1285, 925], ""trial_type"": ""graph"", ""infoCost"": 0.1, ""minTime"": 45, ""delays"": [3, 3, 3], ""actionTimes"": [21736, 26992, 31911], ""time_elapsed"": 765998, ""actions"": [""up"", ""up"", ""right""], ""trialIndex"": 3, ""score"": 40.2, ""trial_index"": 8, ""internal_node_id"": ""0.0-1.0-2.0"", ""clickTimes"": [1088, 2165, 3679, 4554, 6565, 12665, 14613, 18043], ""path"": [1, 3, 7, 13], ""trialID"": 19, ""clicks"": [""4"", ""3"", ""7"", ""12"", ""13"", ""2"", ""5"", ""10""], ""condition"": 0}"
A14ADQ7RUN6TDY:3JV9LGBJWTES83WFRT95KALHF0HGOS,9,1488084981528,"{""rt"": [20641, 854, 1070], ""trial_type"": ""graph"", ""infoCost"": 0.1, ""minTime"": 45, ""delays"": [3, 3, 3], ""actionTimes"": [20641, 25361, 30376], ""time_elapsed"": 824686, ""actions"": [""left"", ""left"", ""up""], ""trialIndex"": 4, ""score"": 38.7, ""trial_index"": 9, ""internal_node_id"": ""0.0-1.0-3.0"", ""clickTimes"": [2025, 3763, 4811, 5758, 7286, 8033, 9179, 11576, 12220, 13083, 14472, 15379, 17376], ""path"": [1, 4, 8, 14], ""trialID"": 0, ""clicks"": [""4"", ""3"", ""2"", ""5"", ""9"", ""16"", ""17"", ""7"", ""12"", ""13"", ""14"", ""8"", ""15""], ""condition"": 0}"
A14ADQ7RUN6TDY:3JV9LGBJWTES83WFRT95KALHF0HGOS,10,1488085038838,"{""rt"": [16548, 707, 554], ""trial_type"": ""graph"", ""infoCost"": 0.1, ""minTime"": 45, ""delays"": [3, 3, 3], ""actionTimes"": [16549, 21297, 25850], ""time_elapsed"": 881997, ""actions"": [""down"", ""down"", ""left""], ""trialIndex"": 5, ""score"": 45.1, ""trial_index"": 10, ""internal_node_id"": ""0.0-1.0-4.0"", ""clickTimes"": [911, 2215, 5497, 7024, 7917, 9469, 10765, 11899, 12548], ""path"": [1, 5, 9, 16], ""trialID"": 1, ""clicks"": [""4"", ""3"", ""7"", ""12"", ""13"", ""2"", ""5"", ""9"", ""16""], ""condition"": 0}"
A14ADQ7RUN6TDY:3JV9LGBJWTES83WFRT95KALHF0HGOS,11,1488085099582,"{""rt"": [17126, 620, 572], ""trial_type"": ""graph"", ""infoCost"": 0.1, ""minTime"": 45, ""delays"": [3, 3, 3], ""actionTimes"": [17126, 21685, 26253], ""time_elapsed"": 942740, ""actions"": [""up"", ""up"", ""right""], ""trialIndex"": 6, ""score"": 46.4, ""trial_index"": 11, ""internal_node_id"": ""0.0-1.0-5.0"", ""clickTimes"": [1097, 3362, 4893, 5791, 7080, 8196], ""path"": [1, 3, 7, 13], ""trialID"": 13, ""clicks"": [""4"", ""8"", ""3"", ""7"", ""12"", ""13""], ""condition"": 0}"
A14ADQ7RUN6TDY:3JV9LGBJWTES83WFRT95KALHF0HGOS,12,1488085158039,"{""rt"": [23621, 629, 540], ""trial_type"": ""graph"", ""infoCost"": 0.1, ""minTime"": 45, ""delays"": [3, 3, 3], ""actionTimes"": [23621, 28108, 32619], ""time_elapsed"": 1001198, ""actions"": [""left"", ""left"", ""down""], ""trialIndex"": 7, ""score"": 36.8, ""trial_index"": 12, ""internal_node_id"": ""0.0-1.0-6.0"", ""clickTimes"": [1342, 2569, 4462, 5214, 6657, 7464, 9263, 10319, 10993, 11894, 15334, 15975], ""path"": [1, 4, 8, 15], ""trialID"": 10, ""clicks"": [""3"", ""4"", ""2"", ""5"", ""9"", ""16"", ""17"", ""8"", ""14"", ""15"", ""6"", ""10""], ""condition"": 0}"
A14ADQ7RUN6TDY:3JV9LGBJWTES83WFRT95KALHF0HGOS,13,1488085216261,"{""rt"": [16713, 9506, 550], ""trial_type"": ""graph"", ""infoCost"": 0.1, ""minTime"": 45, ""delays"": [3, 3, 3], ""actionTimes"": [16713, 30376, 34948], ""time_elapsed"": 1059419, ""actions"": [""right"", ""right"", ""up""], ""trialIndex"": 8, ""score"": 33, ""trial_index"": 13, ""internal_node_id"": ""0.0-1.0-7.0"", ""clickTimes"": [1498, 3564, 4517, 5836, 6737, 9477, 11518, 12340, 13070, 26884], ""path"": [1, 2, 6, 10], ""trialID"": 3, ""clicks"": [""3"", ""4"", ""2"", ""6"", ""10"", ""7"", ""5"", ""9"", ""16"", ""11""], ""condition"": 0}"
A14ADQ7RUN6TDY:3JV9LGBJWTES83WFRT95KALHF0HGOS,14,1488085275034,"{""rt"": [31380, 789, 1579], ""trial_type"": ""graph"", ""infoCost"": 0.1, ""minTime"": 45, ""delays"": [3, 3, 3], ""actionTimes"": [31380, 35958, 41510], ""time_elapsed"": 1118192, ""actions"": [""down"", ""down"", ""right""], ""trialIndex"": 9, ""score"": 41, ""trial_index"": 14, ""internal_node_id"": ""0.0-1.0-8.0"", ""clickTimes"": [1197, 2350, 3308, 5420, 6660, 7312, 8253, 9532, 12248, 13514], ""path"": [1, 5, 9, 17], ""trialID"": 4, ""clicks"": [""2"", ""3"", ""4"", ""5"", ""8"", ""14"", ""15"", ""9"", ""16"", ""17""], ""condition"": 0}"
A14ADQ7RUN6TDY:3JV9LGBJWTES83WFRT95KALHF0HGOS,15,1488085334577,"{""rt"": [32192, 1316, 2134], ""trial_type"": ""graph"", ""infoCost"": 0.1, ""minTime"": 45, ""delays"": [3, 3, 3], ""actionTimes"": [32193, 37460, 43793], ""time_elapsed"": 1177735, ""actions"": [""right"", ""right"", ""up""], ""trialIndex"": 10, ""score"": 20.7, ""trial_index"": 15, ""internal_node_id"": ""0.0-1.0-9.0"", ""clickTimes"": [894, 2215, 2944, 4051, 5083, 5961, 8405, 9810, 10687, 12740, 21321, 22546, 24975], ""path"": [1, 2, 6, 10], ""trialID"": 16, ""clicks"": [""2"", ""3"", ""4"", ""5"", ""6"", ""10"", ""8"", ""7"", ""12"", ""9"", ""15"", ""13"", ""11""], ""condition"": 0}"
A14ADQ7RUN6TDY:3JV9LGBJWTES83WFRT95KALHF0HGOS,16,1488085392297,"{""rt"": [16354, 725, 761], ""trial_type"": ""graph"", ""infoCost"": 0.1, ""minTime"": 45, ""delays"": [3, 3, 3], ""actionTimes"": [16354, 20890, 25609], ""time_elapsed"": 1235455, ""actions"": [""left"", ""left"", ""up""], ""trialIndex"": 11, ""score"": 39, ""trial_index"": 16, ""internal_node_id"": ""0.0-1.0-10.0"", ""clickTimes"": [745, 2273, 2963, 5563, 6950, 7651, 8544, 10418, 11304, 13135], ""path"": [1, 4, 8, 14], ""trialID"": 11, ""clicks"": [""2"", ""3"", ""4"", ""5"", ""9"", ""16"", ""17"", ""8"", ""14"", ""15""], ""condition"": 0}"
A14ADQ7RUN6TDY:3JV9LGBJWTES83WFRT95KALHF0HGOS,17,1488085450008,"{""rt"": [33883, 534, 584], ""trial_type"": ""graph"", ""infoCost"": 0.1, ""minTime"": 45, ""delays"": [3, 3, 3], ""actionTimes"": [33883, 38290, 42827], ""time_elapsed"": 1293167, ""actions"": [""up"", ""up"", ""left""], ""trialIndex"": 12, ""score"": 35.8, ""trial_index"": 17, ""internal_node_id"": ""0.0-1.0-11.0"", ""clickTimes"": [1070, 2101, 5443, 6259, 15648, 17512, 18357, 19289, 20109, 23797, 30805, 31821], ""path"": [1, 3, 7, 12], ""trialID"": 15, ""clicks"": [""2"", ""3"", ""7"", ""12"", ""13"", ""4"", ""8"", ""14"", ""15"", ""5"", ""9"", ""16""], ""condition"": 0}"
A14ADQ7RUN6TDY:3JV9LGBJWTES83WFRT95KALHF0HGOS,18,1488085509641,"{""rt"": [9607, 755, 634], ""trial_type"": ""graph"", ""infoCost"": 0.1, ""minTime"": 45, ""delays"": [3, 3, 3], ""actionTimes"": [9608, 14273, 18896], ""time_elapsed"": 1352799, ""actions"": [""right"", ""right"", ""down""], ""trialIndex"": 13, ""score"": 37.6, ""trial_index"": 18, ""internal_node_id"": ""0.0-1.0-12.0"", ""clickTimes"": [2275, 3546, 4455, 5773], ""path"": [1, 2, 6, 11], ""trialID"": 17, ""clicks"": [""2"", ""6"", ""10"", ""11""], ""condition"": 0}"
A14ADQ7RUN6TDY:3JV9LGBJWTES83WFRT95KALHF0HGOS,19,1488085569343,"{""rt"": [20714, 686, 391], ""trial_type"": ""graph"", ""infoCost"": 0.1, ""minTime"": 45, ""delays"": [3, 3, 3], ""actionTimes"": [20714, 25242, 29626], ""time_elapsed"": 1412501, ""actions"": [""down"", ""down"", ""left""], ""trialIndex"": 14, ""score"": 36.7, ""trial_index"": 19, ""internal_node_id"": ""0.0-1.0-13.0"", ""clickTimes"": [844, 1862, 4181, 5179, 6006, 8463, 9325, 10209, 11893, 12491, 13173, 15633, 18543], ""path"": [1, 5, 9, 16], ""trialID"": 14, ""clicks"": [""2"", ""3"", ""4"", ""8"", ""14"", ""15"", ""7"", ""12"", ""5"", ""9"", ""16"", ""17"", ""6""], ""condition"": 0}"
A14ADQ7RUN6TDY:3JV9LGBJWTES83WFRT95KALHF0HGOS,20,1488085628159,"{""rt"": [7450, 620, 606], ""trial_type"": ""graph"", ""infoCost"": 0.1, ""minTime"": 45, ""delays"": [3, 3, 3], ""actionTimes"": [7450, 12009, 16633], ""time_elapsed"": 1471317, ""actions"": [""right"", ""right"", ""down""], ""trialIndex"": 15, ""score"": 43.6, ""trial_index"": 20, ""internal_node_id"": ""0.0-1.0-14.0"", ""clickTimes"": [1091, 2233, 2953, 4622], ""path"": [1, 2, 6, 11], ""trialID"": 9, ""clicks"": [""2"", ""6"", ""10"", ""11""], ""condition"": 0}"
A14ADQ7RUN6TDY:3JV9LGBJWTES83WFRT95KALHF0HGOS,21,1488085687229,"{""rt"": [15640, 739, 397], ""trial_type"": ""graph"", ""infoCost"": 0.1, ""minTime"": 45, ""delays"": [3, 3, 3], ""actionTimes"": [15640, 20352, 24855], ""time_elapsed"": 1530387, ""actions"": [""up"", ""up"", ""right""], ""trialIndex"": 16, ""score"": 38.2, ""trial_index"": 21, ""internal_node_id"": ""0.0-1.0-15.0"", ""clickTimes"": [1814, 3034, 4537, 5649, 7014, 8132, 9555, 12625], ""path"": [1, 3, 7, 13], ""trialID"": 18, ""clicks"": [""2"", ""3"", ""4"", ""5"", ""7"", ""12"", ""13"", ""9""], ""condition"": 0}"
A14ADQ7RUN6TDY:3JV9LGBJWTES83WFRT95KALHF0HGOS,22,1488085743242,"{""rt"": [20007, 798, 931], ""trial_type"": ""graph"", ""infoCost"": 0.1, ""minTime"": 45, ""delays"": [3, 3, 3], ""actionTimes"": [20007, 24623, 29550], ""time_elapsed"": 1586401, ""actions"": [""left"", ""left"", ""up""], ""trialIndex"": 17, ""score"": 32.8, ""trial_index"": 22, ""internal_node_id"": ""0.0-1.0-16.0"", ""clickTimes"": [858, 2077, 3335, 4698, 5617, 7306, 8082, 12032, 13109, 14359, 15950, 17734], ""path"": [1, 4, 8, 14], ""trialID"": 5, ""clicks"": [""2"", ""3"", ""7"", ""4"", ""8"", ""5"", ""9"", ""6"", ""10"", ""11"", ""14"", ""15""], ""condition"": 0}"
A14ADQ7RUN6TDY:3JV9LGBJWTES83WFRT95KALHF0HGOS,23,1488085801796,"{""rt"": [20234, 612, 527], ""trial_type"": ""graph"", ""infoCost"": 0.1, ""minTime"": 45, ""delays"": [3, 3, 3], ""actionTimes"": [20235, 24756, 29258], ""time_elapsed"": 1644954, ""actions"": [""right"", ""right"", ""down""], ""trialIndex"": 18, ""score"": 36.7, ""trial_index"": 23, ""internal_node_id"": ""0.0-1.0-17.0"", ""clickTimes"": [780, 2565, 3689, 4845, 6110, 6904, 7925, 10051, 11627, 12449, 14077, 15257, 17934], ""path"": [1, 2, 6, 11], ""trialID"": 6, ""clicks"": [""2"", ""3"", ""4"", ""5"", ""9"", ""16"", ""17"", ""7"", ""13"", ""10"", ""11"", ""6"", ""8""], ""condition"": 0}"
A14ADQ7RUN6TDY:3JV9LGBJWTES83WFRT95KALHF0HGOS,24,1488085859011,"{""rt"": [17031, 559, 501], ""trial_type"": ""graph"", ""infoCost"": 0.1, ""minTime"": 45, ""delays"": [3, 3, 3], ""actionTimes"": [17031, 21465, 25959], ""time_elapsed"": 1702170, ""actions"": [""right"", ""right"", ""up""], ""trialIndex"": 19, ""score"": 32.9, ""trial_index"": 24, ""internal_node_id"": ""0.0-1.0-18.0"", ""clickTimes"": [989, 2038, 2818, 4165, 5914, 7472, 8838, 10296, 11708, 12601, 14084], ""path"": [1, 2, 6, 10], ""trialID"": 2, ""clicks"": [""2"", ""3"", ""4"", ""5"", ""9"", ""6"", ""10"", ""11"", ""8"", ""14"", ""15""], ""condition"": 0}"
A14ADQ7RUN6TDY:3JV9LGBJWTES83WFRT95KALHF0HGOS,25,1488085919056,"{""rt"": [13040, 486, 669], ""trial_type"": ""graph"", ""infoCost"": 0.1, ""minTime"": 45, ""delays"": [3, 3, 3], ""actionTimes"": [13041, 17412, 22042], ""time_elapsed"": 1762214, ""actions"": [""down"", ""down"", ""right""], ""trialIndex"": 20, ""score"": 38.9, ""trial_index"": 25, ""internal_node_id"": ""0.0-1.0-19.0"", ""clickTimes"": [1175, 2169, 3052, 3874, 4720, 5628, 6490, 7820, 8770, 10020, 10751], ""path"": [1, 5, 9, 17], ""trialID"": 12, ""clicks"": [""3"", ""7"", ""12"", ""13"", ""2"", ""4"", ""8"", ""5"", ""9"", ""16"", ""17""], ""condition"": 0}"
A14ADQ7RUN6TDY:3JV9LGBJWTES83WFRT95KALHF0HGOS,26,1488085928321,"{""rt"": 8225, ""trial_type"": ""button-response"", ""button_pressed"": 0, ""stimulus"": ""<h1 id=\""thiscompletesthehit\"">This completes the HIT</h1>\n\n<p>One or your trials has been randomly selected and we will pay you 5% of your profit on that trial as a bonus. You will be awarded a bonus of $1.88</p>"", ""internal_node_id"": ""0.0-2.0"", ""time_elapsed"": 1771479, ""trial_index"": 26}"
A19LTHK3TA57SF:37ZHEEHM6WMKTLSSFSLJQUADL6337I,0,1488084312510,"{""rt"": 120914, ""trial_type"": ""instructions"", ""view_history"": ""[{\""page_index\"":0,\""viewing_time\"":53125},{\""page_index\"":1,\""viewing_time\"":42236},{\""page_index\"":2,\""viewing_time\"":25552}]"", ""internal_node_id"": ""0.0-0.0-0.0"", ""time_elapsed"": 120915, ""trial_index"": 0}"
A19LTHK3TA57SF:37ZHEEHM6WMKTLSSFSLJQUADL6337I,1,1488084354983,"{""rt"": 38424, ""trial_type"": ""survey-multi-choice"", ""responses"": ""[\""1\"",\""True\"",\""$0.10\"",\""As many or as few as I wish\"",\""My earnings for each round are equal to the <i>sum</i> of the values of all locations I visit (minus the cost of making observations), and I will be paid the earnings from one of the 20 rounds.\""]"", ""internal_node_id"": ""0.0-0.0-1.0"", ""time_elapsed"": 163389, ""questions"": ""[\""How many flights are there per round?\"",\""True or false: The hidden values will change each time I start a new round.\"",\""How much does it cost to observe each hidden value?\"",\""How many hidden values am I allowed to observe in each round?\"",\""Which statement is TRUE?\""]"", ""correct"": [false, true, true, true, true], ""trial_index"": 1}"
A19LTHK3TA57SF:37ZHEEHM6WMKTLSSFSLJQUADL6337I,2,1488084375621,"{""rt"": 19636, ""trial_type"": ""instructions"", ""view_history"": ""[{\""page_index\"":0,\""viewing_time\"":4876},{\""page_index\"":1,\""viewing_time\"":12792},{\""page_index\"":2,\""viewing_time\"":1968}]"", ""internal_node_id"": ""0.0-0.1-0.1"", ""time_elapsed"": 184027, ""trial_index"": 2}"
A19LTHK3TA57SF:37ZHEEHM6WMKTLSSFSLJQUADL6337I,3,1488084425924,"{""rt"": 47400, ""trial_type"": ""survey-multi-choice"", ""responses"": ""[\""1\"",\""True\"",\""$0.10\"",\""As many or as few as I wish\"",\""My earnings for each round are equal to the <i>sum</i> of the values of all locations I visit (minus the cost of making observations), but these earnings aren't real money.\""]"", ""internal_node_id"": ""0.0-0.1-1.1"", ""time_elapsed"": 234330, ""questions"": ""[\""How many flights are there per round?\"",\""True or false: The hidden values will change each time I start a new round.\"",\""How much does it cost to observe each hidden value?\"",\""How many hidden values am I allowed to observe in each round?\"",\""Which statement is TRUE?\""]"", ""correct"": [false, true, true, true, false], ""trial_index"": 3}"
A19LTHK3TA57SF:37ZHEEHM6WMKTLSSFSLJQUADL6337I,4,1488084452260,"{""rt"": 25332, ""trial_type"": ""instructions"", ""view_history"": ""[{\""page_index\"":0,\""viewing_time\"":14228},{\""page_index\"":1,\""viewing_time\"":7008},{\""page_index\"":2,\""viewing_time\"":4096}]"", ""internal_node_id"": ""0.0-0.2-0.2"", ""time_elapsed"": 260666, ""trial_index"": 4}"
A19LTHK3TA57SF:37ZHEEHM6WMKTLSSFSLJQUADL6337I,5,1488084477190,"{""rt"": 21393, ""trial_type"": ""survey-multi-choice"", ""responses"": ""[\""1\"",\""True\"",\""$0.10\"",\""At most 1\"",\""My earnings for each round are equal to the <i>sum</i> of the values of all locations I visit (minus the cost of making observations), but these earnings aren't real money.\""]"", ""internal_node_id"": ""0.0-0.2-1.2"", ""time_elapsed"": 285596, ""questions"": ""[\""How many flights are there per round?\"",\""True or false: The hidden values will change each time I start a new round.\"",\""How much does it cost to observe each hidden value?\"",\""How many hidden values am I allowed to observe in each round?\"",\""Which statement is TRUE?\""]"", ""correct"": [false, true, true, false, false], ""trial_index"": 5}"
A19LTHK3TA57SF:37ZHEEHM6WMKTLSSFSLJQUADL6337I,6,1488084481142,"{""rt"": 2950, ""trial_type"": ""instructions"", ""view_history"": ""[{\""page_index\"":0,\""viewing_time\"":1790},{\""page_index\"":1,\""viewing_time\"":648},{\""page_index\"":2,\""viewing_time\"":512}]"", ""internal_node_id"": ""0.0-0.3-0.3"", ""time_elapsed"": 289547, ""trial_index"": 6}"
A19LTHK3TA57SF:37ZHEEHM6WMKTLSSFSLJQUADL6337I,7,1488084490886,"{""rt"": 7658, ""trial_type"": ""survey-multi-choice"", ""responses"": ""[\""1\"",\""True\"",\""$0.10\"",\""At most 1\"",\""My earnings for each round are equal to the <i>sum</i> of the values of all locations I visit (minus the cost of making observations), and I will be paid the earnings from one of the 20 rounds.\""]"", ""internal_node_id"": ""0.0-0.3-1.3"", ""time_elapsed"": 299291, ""questions"": ""[\""How many flights are there per round?\"",\""True or false: The hidden values will change each time I start a new round.\"",\""How much does it cost to observe each hidden value?\"",\""How many hidden values am I allowed to observe in each round?\"",\""Which statement is TRUE?\""]"", ""correct"": [false, true, true, false, true], ""trial_index"": 7}"
A19LTHK3TA57SF:37ZHEEHM6WMKTLSSFSLJQUADL6337I,8,1488084494630,"{""rt"": 2731, ""trial_type"": ""instructions"", ""view_history"": ""[{\""page_index\"":0,\""viewing_time\"":1571},{\""page_index\"":1,\""viewing_time\"":680},{\""page_index\"":2,\""viewing_time\"":480}]"", ""internal_node_id"": ""0.0-0.4-0.4"", ""time_elapsed"": 303035, ""trial_index"": 8}"
A19LTHK3TA57SF:37ZHEEHM6WMKTLSSFSLJQUADL6337I,9,1488084504525,"{""rt"": 7791, ""trial_type"": ""survey-multi-choice"", ""responses"": ""[\""1\"",\""True\"",\""$0.10\"",\""At most 1\"",\""My earnings for each round are equal to the value of one of the locations I visit (minus the cost of making observations), but these earnings aren't real money.\""]"", ""internal_node_id"": ""0.0-0.4-1.4"", ""time_elapsed"": 312931, ""questions"": ""[\""How many flights are there per round?\"",\""True or false: The hidden values will change each time I start a new round.\"",\""How much does it cost to observe each hidden value?\"",\""How many hidden values am I allowed to observe in each round?\"",\""Which statement is TRUE?\""]"", ""correct"": [false, true, true, false, false], ""trial_index"": 9}"
A19LTHK3TA57SF:37ZHEEHM6WMKTLSSFSLJQUADL6337I,10,1488084508837,"{""rt"": 3298, ""trial_type"": ""instructions"", ""view_history"": ""[{\""page_index\"":0,\""viewing_time\"":1714},{\""page_index\"":1,\""viewing_time\"":1096},{\""page_index\"":2,\""viewing_time\"":488}]"", ""internal_node_id"": ""0.0-0.5-0.5"", ""time_elapsed"": 317243, ""trial_index"": 10}"
A19LTHK3TA57SF:37ZHEEHM6WMKTLSSFSLJQUADL6337I,11,1488084518452,"{""rt"": 6788, ""trial_type"": ""survey-multi-choice"", ""responses"": ""[\""1\"",\""True\"",\""$0.10\"",\""At most 1\"",\""My earnings for each round are equal to the value of one of the locations I visit (minus the cost of making observations), and I will actually be paid the earnings from one of the 20 rounds.\""]"", ""internal_node_id"": ""0.0-0.5-1.5"", ""time_elapsed"": 326858, ""questions"": ""[\""How many flights are there per round?\"",\""True or false: The hidden values will change each time I start a new round.\"",\""How much does it cost to observe each hidden value?\"",\""How many hidden values am I allowed to observe in each round?\"",\""Which statement is TRUE?\""]"", ""correct"": [false, true, true, false, false], ""trial_index"": 11}"
A19LTHK3TA57SF:37ZHEEHM6WMKTLSSFSLJQUADL6337I,12,1488084548956,"{""rt"": 29500, ""trial_type"": ""instructions"", ""view_history"": ""[{\""page_index\"":0,\""viewing_time\"":2620},{\""page_index\"":1,\""viewing_time\"":25984},{\""page_index\"":2,\""viewing_time\"":895}]"", ""internal_node_id"": ""0.0-0.6-0.6"", ""time_elapsed"": 357362, ""trial_index"": 12}"
A19LTHK3TA57SF:37ZHEEHM6WMKTLSSFSLJQUADL6337I,13,1488084568661,"{""rt"": 14969, ""trial_type"": ""survey-multi-choice"", ""responses"": ""[\""1\"",\""True\"",\""$0.10\"",\""As many or as few as I wish\"",\""My earnings for each round are equal to the <i>sum</i> of the values of all locations I visit (minus the cost of making observations), and I will be paid the earnings from one of the 20 rounds.\""]"", ""internal_node_id"": ""0.0-0.6-1.6"", ""time_elapsed"": 377067, ""questions"": ""[\""How many flights are there per round?\"",\""True or false: The hidden values will change each time I start a new round.\"",\""How much does it cost to observe each hidden value?\"",\""How many hidden values am I allowed to observe in each round?\"",\""Which statement is TRUE?\""]"", ""correct"": [false, true, true, true, true], ""trial_index"": 13}"
A19LTHK3TA57SF:37ZHEEHM6WMKTLSSFSLJQUADL6337I,14,1488084764100,"{""rt"": 194436, ""trial_type"": ""instructions"", ""view_history"": ""[{\""page_index\"":0,\""viewing_time\"":116517},{\""page_index\"":1,\""viewing_time\"":48343},{\""page_index\"":2,\""viewing_time\"":29576}]"", ""internal_node_id"": ""0.0-0.7-0.7"", ""time_elapsed"": 572506, ""trial_index"": 14}"
A19LTHK3TA57SF:37ZHEEHM6WMKTLSSFSLJQUADL6337I,15,1488084870302,"{""rt"": 93786, ""trial_type"": ""survey-multi-choice"", ""responses"": ""[\""1\"",\""True\"",\""$0.10\"",\""As many or as few as I wish\"",\""My earnings for each round are equal to the <i>sum</i> of the values of all locations I visit (minus the cost of making observations), and I will be paid the earnings from one of the 20 rounds.\""]"", ""internal_node_id"": ""0.0-0.7-1.7"", ""time_elapsed"": 678708, ""questions"": ""[\""How many flights are there per round?\"",\""True or false: The hidden values will change each time I start a new round.\"",\""How much does it cost to observe each hidden value?\"",\""How many hidden values am I allowed to observe in each round?\"",\""Which statement is TRUE?\""]"", ""correct"": [false, true, true, true, true], ""trial_index"": 15}"
A19LTHK3TA57SF:37ZHEEHM6WMKTLSSFSLJQUADL6337I,16,1488084874270,"{""rt"": 2965, ""trial_type"": ""instructions"", ""view_history"": ""[{\""page_index\"":0,\""viewing_time\"":1461},{\""page_index\"":1,\""viewing_time\"":1080},{\""page_index\"":2,\""viewing_time\"":424}]"", ""internal_node_id"": ""0.0-0.8-0.8"", ""time_elapsed"": 682675, ""trial_index"": 16}"
A19LTHK3TA57SF:37ZHEEHM6WMKTLSSFSLJQUADL6337I,17,1488084903550,"{""rt"": 26704, ""trial_type"": ""survey-multi-choice"", ""responses"": ""[\""1\"",\""True\"",\""$0.10\"",\""As many or as few as I wish\"",\""My earnings for each round are equal to the <i>sum</i> of the values of all locations I visit (minus the cost of making observations), but these earnings aren't real money.\""]"", ""internal_node_id"": ""0.0-0.8-1.8"", ""time_elapsed"": 711956, ""questions"": ""[\""How many flights are there per round?\"",\""True or false: The hidden values will change each time I start a new round.\"",\""How much does it cost to observe each hidden value?\"",\""How many hidden values am I allowed to observe in each round?\"",\""Which statement is TRUE?\""]"", ""correct"": [false, true, true, true, false], ""trial_index"": 17}"
A19LTHK3TA57SF:37ZHEEHM6WMKTLSSFSLJQUADL6337I,18,1488084955846,"{""rt"": 51292, ""trial_type"": ""instructions"", ""view_history"": ""[{\""page_index\"":0,\""viewing_time\"":1643},{\""page_index\"":1,\""viewing_time\"":24888},{\""page_index\"":2,\""viewing_time\"":24760}]"", ""internal_node_id"": ""0.0-0.9-0.9"", ""time_elapsed"": 764252, ""trial_index"": 18}"
A19LTHK3TA57SF:37ZHEEHM6WMKTLSSFSLJQUADL6337I,19,1488085041606,"{""rt"": 82787, ""trial_type"": ""survey-multi-choice"", ""responses"": ""[\""1\"",\""True\"",\""$0.10\"",\""As many or as few as I wish\"",\""My earnings for each round are equal to the value of one of the locations I visit (minus the cost of making observations), and I will actually be paid the earnings from one of the 20 rounds.\""]"", ""internal_node_id"": ""0.0-0.9-1.9"", ""time_elapsed"": 850012, ""questions"": ""[\""How many flights are there per round?\"",\""True or false: The hidden values will change each time I start a new round.\"",\""How much does it cost to observe each hidden value?\"",\""How many hidden values am I allowed to observe in each round?\"",\""Which statement is TRUE?\""]"", ""correct"": [false, true, true, true, false], ""trial_index"": 19}"
A19LTHK3TA57SF:37ZHEEHM6WMKTLSSFSLJQUADL6337I,20,1488085148782,"{""rt"": 106168, ""trial_type"": ""instructions"", ""view_history"": ""[{\""page_index\"":0,\""viewing_time\"":40998},{\""page_index\"":1,\""viewing_time\"":61481},{\""page_index\"":2,\""viewing_time\"":3688}]"", ""internal_node_id"": ""0.0-0.10-0.10"", ""time_elapsed"": 957188, ""trial_index"": 20}"
A19LTHK3TA57SF:37ZHEEHM6WMKTLSSFSLJQUADL6337I,21,1488085183014,"{""rt"": 18962, ""trial_type"": ""survey-multi-choice"", ""responses"": ""[\""1\"",\""True\"",\""$0.10\"",\""As many or as few as I wish\"",\""My earnings for each round are equal to the value of one of the locations I visit (minus the cost of making observations), but these earnings aren't real money.\""]"", ""internal_node_id"": ""0.0-0.10-1.10"", ""time_elapsed"": 991420, ""questions"": ""[\""How many flights are there per round?\"",\""True or false: The hidden values will change each time I start a new round.\"",\""How much does it cost to observe each hidden value?\"",\""How many hidden values am I allowed to observe in each round?\"",\""Which statement is TRUE?\""]"", ""correct"": [false, true, true, true, false], ""trial_index"": 21}"
A19LTHK3TA57SF:37ZHEEHM6WMKTLSSFSLJQUADL6337I,22,1488085186574,"{""rt"": 2558, ""trial_type"": ""instructions"", ""view_history"": ""[{\""page_index\"":0,\""viewing_time\"":1557},{\""page_index\"":1,\""viewing_time\"":584},{\""page_index\"":2,\""viewing_time\"":416}]"", ""internal_node_id"": ""0.0-0.11-0.11"", ""time_elapsed"": 994980, ""trial_index"": 22}"
A19LTHK3TA57SF:37ZHEEHM6WMKTLSSFSLJQUADL6337I,23,1488085223806,"{""rt"": 34831, ""trial_type"": ""survey-multi-choice"", ""responses"": ""[\""1\"",\""False\"",\""$0.10\"",\""As many or as few as I wish\"",\""My earnings for each round are equal to the <i>sum</i> of the values of all locations I visit (minus the cost of making observations), and I will be paid the earnings from one of the 20 rounds.\""]"", ""internal_node_id"": ""0.0-0.11-1.11"", ""time_elapsed"": 1032212, ""questions"": ""[\""How many flights are there per round?\"",\""True or false: The hidden values will change each time I start a new round.\"",\""How much does it cost to observe each hidden value?\"",\""How many hidden values am I allowed to observe in each round?\"",\""Which statement is TRUE?\""]"", ""correct"": [false, false, true, true, true], ""trial_index"": 23}"
A19LTHK3TA57SF:37ZHEEHM6WMKTLSSFSLJQUADL6337I,24,1488085227838,"{""rt"": 3018, ""trial_type"": ""instructions"", ""view_history"": ""[{\""page_index\"":0,\""viewing_time\"":2025},{\""page_index\"":1,\""viewing_time\"":608},{\""page_index\"":2,\""viewing_time\"":384}]"", ""internal_node_id"": ""0.0-0.12-0.12"", ""time_elapsed"": 1036244, ""trial_index"": 24}"
A19LTHK3TA57SF:37ZHEEHM6WMKTLSSFSLJQUADL6337I,25,1488085240295,"{""rt"": 10378, ""trial_type"": ""survey-multi-choice"", ""responses"": ""[\""1\"",\""False\"",\""$0.10\"",\""As many or as few as I wish\"",\""My earnings for each round are equal to the <i>sum</i> of the values of all locations I visit (minus the cost of making observations), but these earnings aren't real money.\""]"", ""internal_node_id"": ""0.0-0.12-1.12"", ""time_elapsed"": 1048701, ""questions"": ""[\""How many flights are there per round?\"",\""True or false: The hidden values will change each time I start a new round.\"",\""How much does it cost to observe each hidden value?\"",\""How many hidden values am I allowed to observe in each round?\"",\""Which statement is TRUE?\""]"", ""correct"": [false, false, true, true, false], ""trial_index"": 25}"
A19LTHK3TA57SF:37ZHEEHM6WMKTLSSFSLJQUADL6337I,26,1488085243765,"{""rt"": 2466, ""trial_type"": ""instructions"", ""view_history"": ""[{\""page_index\"":0,\""viewing_time\"":1466},{\""page_index\"":1,\""viewing_time\"":599},{\""page_index\"":2,\""viewing_time\"":400}]"", ""internal_node_id"": ""0.0-0.13-0.13"", ""time_elapsed"": 1052171, ""trial_index"": 26}"
A19LTHK3TA57SF:37ZHEEHM6WMKTLSSFSLJQUADL6337I,27,1488085253757,"{""rt"": 7802, ""trial_type"": ""survey-multi-choice"", ""responses"": ""[\""1\"",\""False\"",\""$0.10\"",\""As many or as few as I wish\"",\""My earnings for each round are equal to the value of one of the locations I visit (minus the cost of making observations), and I will actually be paid the earnings from one of the 20 rounds.\""]"", ""internal_node_id"": ""0.0-0.13-1.13"", ""time_elapsed"": 1062163, ""questions"": ""[\""How many flights are there per round?\"",\""True or false: The hidden values will change each time I start a new round.\"",\""How much does it cost to observe each hidden value?\"",\""How many hidden values am I allowed to observe in each round?\"",\""Which statement is TRUE?\""]"", ""correct"": [false, false, true, true, false], ""trial_index"": 27}"
A19LTHK3TA57SF:37ZHEEHM6WMKTLSSFSLJQUADL6337I,28,1488085260005,"{""rt"": 5243, ""trial_type"": ""instructions"", ""view_history"": ""[{\""page_index\"":0,\""viewing_time\"":1882},{\""page_index\"":1,\""viewing_time\"":576},{\""page_index\"":2,\""viewing_time\"":2784}]"", ""internal_node_id"": ""0.0-0.14-0.14"", ""time_elapsed"": 1068411, ""trial_index"": 28}"
A19LTHK3TA57SF:37ZHEEHM6WMKTLSSFSLJQUADL6337I,29,1488085267973,"{""rt"": 5858, ""trial_type"": ""survey-multi-choice"", ""responses"": ""[\""1\"",\""False\"",\""$0.10\"",\""As many or as few as I wish\"",\""My earnings for each round are equal to the value of one of the locations I visit (minus the cost of making observations), but these earnings aren't real money.\""]"", ""internal_node_id"": ""0.0-0.14-1.14"", ""time_elapsed"": 1076379, ""questions"": ""[\""How many flights are there per round?\"",\""True or false: The hidden values will change each time I start a new round.\"",\""How much does it cost to observe each hidden value?\"",\""How many hidden values am I allowed to observe in each round?\"",\""Which statement is TRUE?\""]"", ""correct"": [false, false, true, true, false], ""trial_index"": 29}"
A19LTHK3TA57SF:37ZHEEHM6WMKTLSSFSLJQUADL6337I,30,1488085272310,"{""rt"": 3331, ""trial_type"": ""instructions"", ""view_history"": ""[{\""page_index\"":0,\""viewing_time\"":1954},{\""page_index\"":1,\""viewing_time\"":761},{\""page_index\"":2,\""viewing_time\"":616}]"", ""internal_node_id"": ""0.0-0.15-0.15"", ""time_elapsed"": 1080716, ""trial_index"": 30}"
A19LTHK3TA57SF:37ZHEEHM6WMKTLSSFSLJQUADL6337I,31,1488085312509,"{""rt"": 38188, ""trial_type"": ""survey-multi-choice"", ""responses"": ""[\""2\"",\""True\"",\""$0.10\"",\""As many or as few as I wish\"",\""My earnings for each round are equal to the value of one of the locations I visit (minus the cost of making observations), and I will actually be paid the earnings from one of the 20 rounds.\""]"", ""internal_node_id"": ""0.0-0.15-1.15"", ""time_elapsed"": 1120915, ""questions"": ""[\""How many flights are there per round?\"",\""True or false: The hidden values will change each time I start a new round.\"",\""How much does it cost to observe each hidden value?\"",\""How many hidden values am I allowed to observe in each round?\"",\""Which statement is TRUE?\""]"", ""correct"": [false, true, true, true, false], ""trial_index"": 31}"
A19LTHK3TA57SF:37ZHEEHM6WMKTLSSFSLJQUADL6337I,32,1488085368109,"{""rt"": 54596, ""trial_type"": ""instructions"", ""view_history"": ""[{\""page_index\"":0,\""viewing_time\"":6763},{\""page_index\"":1,\""viewing_time\"":857},{\""page_index\"":2,\""viewing_time\"":2391},{\""page_index\"":1,\""viewing_time\"":8912},{\""page_index\"":0,\""viewing_time\"":34672},{\""page_index\"":1,\""viewing_time\"":544},{\""page_index\"":2,\""viewing_time\"":456}]"", ""internal_node_id"": ""0.0-0.16-0.16"", ""time_elapsed"": 1176515, ""trial_index"": 32}"
A19LTHK3TA57SF:37ZHEEHM6WMKTLSSFSLJQUADL6337I,33,1488085377069,"{""rt"": 6720, ""trial_type"": ""survey-multi-choice"", ""responses"": ""[\""4\"",\""True\"",\""$0.10\"",\""As many or as few as I wish\"",\""My earnings for each round are equal to the <i>sum</i> of the values of all locations I visit (minus the cost of making observations), and I will be paid the earnings from one of the 20 rounds.\""]"", ""internal_node_id"": ""0.0-0.16-1.16"", ""time_elapsed"": 1185475, ""questions"": ""[\""How many flights are there per round?\"",\""True or false: The hidden values will change each time I start a new round.\"",\""How much does it cost to observe each hidden value?\"",\""How many hidden values am I allowed to observe in each round?\"",\""Which statement is TRUE?\""]"", ""correct"": [false, true, true, true, true], ""trial_index"": 33}"
A19LTHK3TA57SF:37ZHEEHM6WMKTLSSFSLJQUADL6337I,34,1488085380373,"{""rt"": 2301, ""trial_type"": ""instructions"", ""view_history"": ""[{\""page_index\"":0,\""viewing_time\"":1348},{\""page_index\"":1,\""viewing_time\"":528},{\""page_index\"":2,\""viewing_time\"":424}]"", ""internal_node_id"": ""0.0-0.17-0.17"", ""time_elapsed"": 1188779, ""trial_index"": 34}"
A19LTHK3TA57SF:37ZHEEHM6WMKTLSSFSLJQUADL6337I,35,1488085391125,"{""rt"": 6851, ""trial_type"": ""survey-multi-choice"", ""responses"": ""[\""4\"",\""True\"",\""$0.10\"",\""As many or as few as I wish\"",\""My earnings for each round are equal to the <i>sum</i> of the values of all locations I visit (minus the cost of making observations), but these earnings aren't real money.\""]"", ""internal_node_id"": ""0.0-0.17-1.17"", ""time_elapsed"": 1199531, ""questions"": ""[\""How many flights are there per round?\"",\""True or false: The hidden values will change each time I start a new round.\"",\""How much does it cost to observe each hidden value?\"",\""How many hidden values am I allowed to observe in each round?\"",\""Which statement is TRUE?\""]"", ""correct"": [false, true, true, true, false], ""trial_index"": 35}"
A19LTHK3TA57SF:37ZHEEHM6WMKTLSSFSLJQUADL6337I,36,1488085394373,"{""rt"": 2245, ""trial_type"": ""instructions"", ""view_history"": ""[{\""page_index\"":0,\""viewing_time\"":1286},{\""page_index\"":1,\""viewing_time\"":558},{\""page_index\"":2,\""viewing_time\"":400}]"", ""internal_node_id"": ""0.0-0.18-0.18"", ""time_elapsed"": 1202779, ""trial_index"": 36}"
A19LTHK3TA57SF:37ZHEEHM6WMKTLSSFSLJQUADL6337I,37,1488085409021,"{""rt"": 12541, ""trial_type"": ""survey-multi-choice"", ""responses"": ""[\""4\"",\""True\"",\""$0.10\"",\""As many or as few as I wish\"",\""My earnings for each round are equal to the value of one of the locations I visit (minus the cost of making observations), and I will actually be paid the earnings from one of the 20 rounds.\""]"", ""internal_node_id"": ""0.0-0.18-1.18"", ""time_elapsed"": 1217427, ""questions"": ""[\""How many flights are there per round?\"",\""True or false: The hidden values will change each time I start a new round.\"",\""How much does it cost to observe each hidden value?\"",\""How many hidden values am I allowed to observe in each round?\"",\""Which statement is TRUE?\""]"", ""correct"": [false, true, true, true, false], ""trial_index"": 37}"
A19LTHK3TA57SF:37ZHEEHM6WMKTLSSFSLJQUADL6337I,38,1488085412605,"{""rt"": 2579, ""trial_type"": ""instructions"", ""view_history"": ""[{\""page_index\"":0,\""viewing_time\"":1402},{\""page_index\"":1,\""viewing_time\"":817},{\""page_index\"":2,\""viewing_time\"":359}]"", ""internal_node_id"": ""0.0-0.19-0.19"", ""time_elapsed"": 1221011, ""trial_index"": 38}"
A19LTHK3TA57SF:37ZHEEHM6WMKTLSSFSLJQUADL6337I,39,1488085421485,"{""rt"": 6650, ""trial_type"": ""survey-multi-choice"", ""responses"": ""[\""4\"",\""True\"",\""$0.10\"",\""As many or as few as I wish\"",\""My earnings for each round are equal to the value of one of the locations I visit (minus the cost of making observations), but these earnings aren't real money.\""]"", ""internal_node_id"": ""0.0-0.19-1.19"", ""time_elapsed"": 1229891, ""questions"": ""[\""How many flights are there per round?\"",\""True or false: The hidden values will change each time I start a new round.\"",\""How much does it cost to observe each hidden value?\"",\""How many hidden values am I allowed to observe in each round?\"",\""Which statement is TRUE?\""]"", ""correct"": [false, true, true, true, false], ""trial_index"": 39}"
A19LTHK3TA57SF:37ZHEEHM6WMKTLSSFSLJQUADL6337I,40,1488085429399,"{""rt"": 6904, ""trial_type"": ""instructions"", ""view_history"": ""[{\""page_index\"":0,\""viewing_time\"":3942},{\""page_index\"":1,\""viewing_time\"":1944},{\""page_index\"":2,\""viewing_time\"":1018}]"", ""internal_node_id"": ""0.0-0.20-0.20"", ""time_elapsed"": 1237805, ""trial_index"": 40}"
A19LTHK3TA57SF:37ZHEEHM6WMKTLSSFSLJQUADL6337I,41,1488085452774,"{""rt"": 20872, ""trial_type"": ""survey-multi-choice"", ""responses"": ""[\""1\"",\""True\"",\""$0.10\"",\""At most 1\"",\""My earnings for each round are equal to the value of one of the locations I visit (minus the cost of making observations), and I will actually be paid the earnings from one of the 20 rounds.\""]"", ""internal_node_id"": ""0.0-0.20-1.20"", ""time_elapsed"": 1261180, ""questions"": ""[\""How many flights are there per round?\"",\""True or false: The hidden values will change each time I start a new round.\"",\""How much does it cost to observe each hidden value?\"",\""How many hidden values am I allowed to observe in each round?\"",\""Which statement is TRUE?\""]"", ""correct"": [false, true, true, false, false], ""trial_index"": 41}"
A19LTHK3TA57SF:37ZHEEHM6WMKTLSSFSLJQUADL6337I,42,1488085455942,"{""rt"": 2160, ""trial_type"": ""instructions"", ""view_history"": ""[{\""page_index\"":0,\""viewing_time\"":1248},{\""page_index\"":1,\""viewing_time\"":559},{\""page_index\"":2,\""viewing_time\"":352}]"", ""internal_node_id"": ""0.0-0.21-0.21"", ""time_elapsed"": 1264348, ""trial_index"": 42}"
A19LTHK3TA57SF:37ZHEEHM6WMKTLSSFSLJQUADL6337I,43,1488085463863,"{""rt"": 5868, ""trial_type"": ""survey-multi-choice"", ""responses"": ""[\""1\"",\""True\"",\""$0.10\"",\""At most 1\"",\""My earnings for each round are equal to the value of one of the locations I visit (minus the cost of making observations), but these earnings aren't real money.\""]"", ""internal_node_id"": ""0.0-0.21-1.21"", ""time_elapsed"": 1272269, ""questions"": ""[\""How many flights are there per round?\"",\""True or false: The hidden values will change each time I start a new round.\"",\""How much does it cost to observe each hidden value?\"",\""How many hidden values am I allowed to observe in each round?\"",\""Which statement is TRUE?\""]"", ""correct"": [false, true, true, false, false], ""trial_index"": 43}"
A19LTHK3TA57SF:37ZHEEHM6WMKTLSSFSLJQUADL6337I,44,1488085469719,"{""rt"": 4850, ""trial_type"": ""instructions"", ""view_history"": ""[{\""page_index\"":0,\""viewing_time\"":1234},{\""page_index\"":1,\""viewing_time\"":1903},{\""page_index\"":2,\""viewing_time\"":1713}]"", ""internal_node_id"": ""0.0-0.22-0.22"", ""time_elapsed"": 1278125, ""trial_index"": 44}"
A19LTHK3TA57SF:37ZHEEHM6WMKTLSSFSLJQUADL6337I,45,1488085479886,"{""rt"": 8126, ""trial_type"": ""survey-multi-choice"", ""responses"": ""[\""1\"",\""True\"",\""$0.10\"",\""At most 1\"",\""My earnings for each round are equal to the value of one of the locations I visit (minus the cost of making observations), but these earnings aren't real money.\""]"", ""internal_node_id"": ""0.0-0.22-1.22"", ""time_elapsed"": 1288292, ""questions"": ""[\""How many flights are there per round?\"",\""True or false: The hidden values will change each time I start a new round.\"",\""How much does it cost to observe each hidden value?\"",\""How many hidden values am I allowed to observe in each round?\"",\""Which statement is TRUE?\""]"", ""correct"": [false, true, true, false, false], ""trial_index"": 45}"
A19LTHK3TA57SF:37ZHEEHM6WMKTLSSFSLJQUADL6337I,46,1488085486645,"{""rt"": 5754, ""trial_type"": ""instructions"", ""view_history"": ""[{\""page_index\"":0,\""viewing_time\"":2170},{\""page_index\"":1,\""viewing_time\"":1760},{\""page_index\"":2,\""viewing_time\"":1823}]"", ""internal_node_id"": ""0.0-0.23-0.23"", ""time_elapsed"": 1295051, ""trial_index"": 46}"
A19LTHK3TA57SF:37ZHEEHM6WMKTLSSFSLJQUADL6337I,47,1488085512285,"{""rt"": 23430, ""trial_type"": ""survey-multi-choice"", ""responses"": ""[\""2\"",\""True\"",\""$0.10\"",\""As many or as few as I wish\"",\""My earnings for each round are equal to the value of one of the locations I visit (minus the cost of making observations), and I will actually be paid the earnings from one of the 20 rounds.\""]"", ""internal_node_id"": ""0.0-0.23-1.23"", ""time_elapsed"": 1320691, ""questions"": ""[\""How many flights are there per round?\"",\""True or false: The hidden values will change each time I start a new round.\"",\""How much does it cost to observe each hidden value?\"",\""How many hidden values am I allowed to observe in each round?\"",\""Which statement is TRUE?\""]"", ""correct"": [false, true, true, true, false], ""trial_index"": 47}"
A19LTHK3TA57SF:37ZHEEHM6WMKTLSSFSLJQUADL6337I,48,1488085516445,"{""rt"": 3158, ""trial_type"": ""instructions"", ""view_history"": ""[{\""page_index\"":0,\""viewing_time\"":1045},{\""page_index\"":1,\""viewing_time\"":792},{\""page_index\"":2,\""viewing_time\"":1320}]"", ""internal_node_id"": ""0.0-0.24-0.24"", ""time_elapsed"": 1324851, ""trial_index"": 48}"
A19LTHK3TA57SF:37ZHEEHM6WMKTLSSFSLJQUADL6337I,49,1488085523989,"{""rt"": 5508, ""trial_type"": ""survey-multi-choice"", ""responses"": ""[\""2\"",\""True\"",\""$0.10\"",\""As many or as few as I wish\"",\""My earnings for each round are equal to the value of one of the locations I visit (minus the cost of making observations), but these earnings aren't real money.\""]"", ""internal_node_id"": ""0.0-0.24-1.24"", ""time_elapsed"": 1332395, ""questions"": ""[\""How many flights are there per round?\"",\""True or false: The hidden values will change each time I start a new round.\"",\""How much does it cost to observe each hidden value?\"",\""How many hidden values am I allowed to observe in each round?\"",\""Which statement is TRUE?\""]"", ""correct"": [false, true, true, true, false], ""trial_index"": 49}"
A19LTHK3TA57SF:37ZHEEHM6WMKTLSSFSLJQUADL6337I,50,1488085527125,"{""rt"": 2123, ""trial_type"": ""instructions"", ""view_history"": ""[{\""page_index\"":0,\""viewing_time\"":1196},{\""page_index\"":1,\""viewing_time\"":519},{\""page_index\"":2,\""viewing_time\"":408}]"", ""internal_node_id"": ""0.0-0.25-0.25"", ""time_elapsed"": 1335531, ""trial_index"": 50}"
A19LTHK3TA57SF:37ZHEEHM6WMKTLSSFSLJQUADL6337I,51,1488085545277,"{""rt"": 16003, ""trial_type"": ""survey-multi-choice"", ""responses"": ""[\""2\"",\""True\"",\""$0.10\"",\""As many or as few as I wish\"",\""My earnings for each round are equal to the <i>sum</i> of the values of all locations I visit (minus the cost of making observations), and I will be paid the earnings from one of the 20 rounds.\""]"", ""internal_node_id"": ""0.0-0.25-1.25"", ""time_elapsed"": 1353683, ""questions"": ""[\""How many flights are there per round?\"",\""True or false: The hidden values will change each time I start a new round.\"",\""How much does it cost to observe each hidden value?\"",\""How many hidden values am I allowed to observe in each round?\"",\""Which statement is TRUE?\""]"", ""correct"": [false, true, true, true, true], ""trial_index"": 51}"
A19LTHK3TA57SF:37ZHEEHM6WMKTLSSFSLJQUADL6337I,52,1488085548813,"{""rt"": 2532, ""trial_type"": ""instructions"", ""view_history"": ""[{\""page_index\"":0,\""viewing_time\"":1419},{\""page_index\"":1,\""viewing_time\"":608},{\""page_index\"":2,\""viewing_time\"":504}]"", ""internal_node_id"": ""0.0-0.26-0.26"", ""time_elapsed"": 1357219, ""trial_index"": 52}"
A19LTHK3TA57SF:37ZHEEHM6WMKTLSSFSLJQUADL6337I,53,1488085558213,"{""rt"": 7268, ""trial_type"": ""survey-multi-choice"", ""responses"": ""[\""1\"",\""True\"",\""$0.10\"",\""As many or as few as I wish\"",\""My earnings for each round are equal to the <i>sum</i> of the values of all locations I visit (minus the cost of making observations), but these earnings aren't real money.\""]"", ""internal_node_id"": ""0.0-0.26-1.26"", ""time_elapsed"": 1366619, ""questions"": ""[\""How many flights are there per round?\"",\""True or false: The hidden values will change each time I start a new round.\"",\""How much does it cost to observe each hidden value?\"",\""How many hidden values am I allowed to observe in each round?\"",\""Which statement is TRUE?\""]"", ""correct"": [false, true, true, true, false], ""trial_index"": 53}"
A19LTHK3TA57SF:37ZHEEHM6WMKTLSSFSLJQUADL6337I,54,1488085601213,"{""rt"": 41985, ""trial_type"": ""instructions"", ""view_history"": ""[{\""page_index\"":0,\""viewing_time\"":41009},{\""page_index\"":1,\""viewing_time\"":544},{\""page_index\"":2,\""viewing_time\"":432}]"", ""internal_node_id"": ""0.0-0.27-0.27"", ""time_elapsed"": 1409619, ""trial_index"": 54}"
A19LTHK3TA57SF:37ZHEEHM6WMKTLSSFSLJQUADL6337I,55,1488085612405,"{""rt"": 9148, ""trial_type"": ""survey-multi-choice"", ""responses"": ""[\""3\"",\""True\"",\""$0.10\"",\""As many or as few as I wish\"",\""My earnings for each round are equal to the value of one of the locations I visit (minus the cost of making observations), and I will actually be paid the earnings from one of the 20 rounds.\""]"", ""internal_node_id"": ""0.0-0.27-1.27"", ""time_elapsed"": 1420811, ""questions"": ""[\""How many flights are there per round?\"",\""True or false: The hidden values will change each time I start a new round.\"",\""How much does it cost to observe each hidden value?\"",\""How many hidden values am I allowed to observe in each round?\"",\""Which statement is TRUE?\""]"", ""correct"": [true, true, true, true, false], ""trial_index"": 55}"
A19LTHK3TA57SF:37ZHEEHM6WMKTLSSFSLJQUADL6337I,56,1488085617741,"{""rt"": 4335, ""trial_type"": ""instructions"", ""view_history"": ""[{\""page_index\"":0,\""viewing_time\"":3151},{\""page_index\"":1,\""viewing_time\"":768},{\""page_index\"":2,\""viewing_time\"":415}]"", ""internal_node_id"": ""0.0-0.28-0.28"", ""time_elapsed"": 1426147, ""trial_index"": 56}"
A19LTHK3TA57SF:37ZHEEHM6WMKTLSSFSLJQUADL6337I,57,1488085625557,"{""rt"": 5758, ""trial_type"": ""survey-multi-choice"", ""responses"": ""[\""3\"",\""True\"",\""$0.10\"",\""As many or as few as I wish\"",\""My earnings for each round are equal to the value of one of the locations I visit (minus the cost of making observations), but these earnings aren't real money.\""]"", ""internal_node_id"": ""0.0-0.28-1.28"", ""time_elapsed"": 1433963, ""questions"": ""[\""How many flights are there per round?\"",\""True or false: The hidden values will change each time I start a new round.\"",\""How much does it cost to observe each hidden value?\"",\""How many hidden values am I allowed to observe in each round?\"",\""Which statement is TRUE?\""]"", ""correct"": [true, true, true, true, false], ""trial_index"": 57}"
A19LTHK3TA57SF:37ZHEEHM6WMKTLSSFSLJQUADL6337I,58,1488085628781,"{""rt"": 2221, ""trial_type"": ""instructions"", ""view_history"": ""[{\""page_index\"":0,\""viewing_time\"":1173},{\""page_index\"":1,\""viewing_time\"":680},{\""page_index\"":2,\""viewing_time\"":367}]"", ""internal_node_id"": ""0.0-0.29-0.29"", ""time_elapsed"": 1437187, ""trial_index"": 58}"
A19LTHK3TA57SF:37ZHEEHM6WMKTLSSFSLJQUADL6337I,59,1488085638775,"{""rt"": 8975, ""trial_type"": ""survey-multi-choice"", ""responses"": ""[\""3\"",\""True\"",\""$0.10\"",\""As many or as few as I wish\"",\""My earnings for each round are equal to the <i>sum</i> of the values of all locations I visit (minus the cost of making observations), and I will be paid the earnings from one of the 20 rounds.\""]"", ""internal_node_id"": ""0.0-0.29-1.29"", ""time_elapsed"": 1447181, ""questions"": ""[\""How many flights are there per round?\"",\""True or false: The hidden values will change each time I start a new round.\"",\""How much does it cost to observe each hidden value?\"",\""How many hidden values am I allowed to observe in each round?\"",\""Which statement is TRUE?\""]"", ""correct"": [true, true, true, true, true], ""trial_index"": 59}"
A19LTHK3TA57SF:37ZHEEHM6WMKTLSSFSLJQUADL6337I,60,1488085699479,"{""rt"": [29885, 2038, 807], ""trial_type"": ""graph"", ""infoCost"": 0.1, ""minTime"": 45, ""delays"": [3, 3, 3], ""actionTimes"": [29886, 35923, 40681], ""time_elapsed"": 1507885, ""actions"": [""right"", ""right"", ""down""], ""trialIndex"": 1, ""score"": 15.7, ""trial_index"": 60, ""internal_node_id"": ""0.0-1.0-0.0"", ""clickTimes"": [10326, 19838, 21621], ""path"": [1, 2, 6, 11], ""trialID"": 14, ""clicks"": [""3"", ""7"", ""13""], ""condition"": 0}"
A19LTHK3TA57SF:37ZHEEHM6WMKTLSSFSLJQUADL6337I,61,1488085757051,"{""rt"": [1778, 2357, 719], ""trial_type"": ""graph"", ""infoCost"": 0.1, ""minTime"": 45, ""delays"": [3, 3, 3], ""actionTimes"": [1778, 8074, 12753], ""time_elapsed"": 1565457, ""actions"": [""up"", ""up"", ""right""], ""trialIndex"": 2, ""score"": 19, ""trial_index"": 61, ""internal_node_id"": ""0.0-1.0-1.0"", ""clickTimes"": [], ""path"": [1, 3, 7, 13], ""trialID"": 9, ""clicks"": [], ""condition"": 0}"
A19LTHK3TA57SF:37ZHEEHM6WMKTLSSFSLJQUADL6337I,62,1488085822350,"{""rt"": [1964, 1261, 9101], ""trial_type"": ""graph"", ""infoCost"": 0.1, ""minTime"": 45, ""delays"": [3, 3, 3], ""actionTimes"": [1964, 7144, 20263], ""time_elapsed"": 1630755, ""actions"": [""left"", ""left"", ""down""], ""trialIndex"": 3, ""score"": 40, ""trial_index"": 62, ""internal_node_id"": ""0.0-1.0-2.0"", ""clickTimes"": [], ""path"": [1, 4, 8, 15], ""trialID"": 0, ""clicks"": [], ""condition"": 0}"
A19LTHK3TA57SF:37ZHEEHM6WMKTLSSFSLJQUADL6337I,63,1488085880739,"{""rt"": [1792, 651, 4809], ""trial_type"": ""graph"", ""infoCost"": 0.1, ""minTime"": 45, ""delays"": [3, 3, 3], ""actionTimes"": [1793, 6487, 15236], ""time_elapsed"": 1689145, ""actions"": [""down"", ""down"", ""right""], ""trialIndex"": 4, ""score"": 39.8, ""trial_index"": 63, ""internal_node_id"": ""0.0-1.0-3.0"", ""clickTimes"": [13051, 13894], ""path"": [1, 5, 9, 17], ""trialID"": 12, ""clicks"": [""16"", ""17""], ""condition"": 0}"
A19LTHK3TA57SF:37ZHEEHM6WMKTLSSFSLJQUADL6337I,64,1488085983558,"{""rt"": [3186, 612, 2946], ""trial_type"": ""graph"", ""infoCost"": 0.1, ""minTime"": 45, ""delays"": [3, 3, 3], ""actionTimes"": [3187, 7757, 14664], ""time_elapsed"": 1791964, ""actions"": [""up"", ""up"", ""left""], ""trialIndex"": 5, ""score"": 22.8, ""trial_index"": 64, ""internal_node_id"": ""0.0-1.0-4.0"", ""clickTimes"": [12152, 12991], ""path"": [1, 3, 7, 12], ""trialID"": 4, ""clicks"": [""12"", ""13""], ""condition"": 0}"
A19LTHK3TA57SF:37ZHEEHM6WMKTLSSFSLJQUADL6337I,65,1488086041451,"{""rt"": [2970, 435, 2404], ""trial_type"": ""graph"", ""infoCost"": 0.1, ""minTime"": 45, ""delays"": [3, 3, 3], ""actionTimes"": [2970, 7439, 13814], ""time_elapsed"": 1849857, ""actions"": [""left"", ""left"", ""down""], ""trialIndex"": 6, ""score"": 25.8, ""trial_index"": 65, ""internal_node_id"": ""0.0-1.0-5.0"", ""clickTimes"": [11802, 12545], ""path"": [1, 4, 8, 15], ""trialID"": 3, ""clicks"": [""14"", ""15""], ""condition"": 0}"
A19LTHK3TA57SF:37ZHEEHM6WMKTLSSFSLJQUADL6337I,66,1488086102198,"{""rt"": [720, 2815, 3745], ""trial_type"": ""graph"", ""infoCost"": 0.1, ""minTime"": 45, ""delays"": [3, 3, 3], ""actionTimes"": [720, 7526, 15266], ""time_elapsed"": 1910603, ""actions"": [""down"", ""down"", ""right""], ""trialIndex"": 7, ""score"": 15.8, ""trial_index"": 66, ""internal_node_id"": ""0.0-1.0-6.0"", ""clickTimes"": [11913, 12569], ""path"": [1, 5, 9, 17], ""trialID"": 10, ""clicks"": [""16"", ""17""], ""condition"": 0}"
A19LTHK3TA57SF:37ZHEEHM6WMKTLSSFSLJQUADL6337I,67,1488086159461,"{""rt"": [1184, 1344, 4194], ""trial_type"": ""graph"", ""infoCost"": 0.1, ""minTime"": 45, ""delays"": [3, 3, 3], ""actionTimes"": [1184, 6516, 14714], ""time_elapsed"": 1967867, ""actions"": [""up"", ""up"", ""right""], ""trialIndex"": 8, ""score"": 2.8, ""trial_index"": 67, ""internal_node_id"": ""0.0-1.0-7.0"", ""clickTimes"": [10954, 11642], ""path"": [1, 3, 7, 13], ""trialID"": 16, ""clicks"": [""12"", ""13""], ""condition"": 0}"
A19LTHK3TA57SF:37ZHEEHM6WMKTLSSFSLJQUADL6337I,68,1488086219812,"{""rt"": [5442, 751, 4482], ""trial_type"": ""graph"", ""infoCost"": 0.1, ""minTime"": 45, ""delays"": [3, 3, 3], ""actionTimes"": [5443, 10308, 18806], ""time_elapsed"": 2028218, ""actions"": [""right"", ""right"", ""up""], ""trialIndex"": 9, ""score"": 7.7, ""trial_index"": 68, ""internal_node_id"": ""0.0-1.0-8.0"", ""clickTimes"": [1106, 14850, 15810], ""path"": [1, 2, 6, 10], ""trialID"": 7, ""clicks"": [""2"", ""10"", ""11""], ""condition"": 0}"
A19LTHK3TA57SF:37ZHEEHM6WMKTLSSFSLJQUADL6337I,69,1488086277627,"{""rt"": [1721, 465, 2619], ""trial_type"": ""graph"", ""infoCost"": 0.1, ""minTime"": 45, ""delays"": [3, 3, 3], ""actionTimes"": [1722, 6170, 12828], ""time_elapsed"": 2086033, ""actions"": [""up"", ""up"", ""right""], ""trialIndex"": 10, ""score"": 40.8, ""trial_index"": 69, ""internal_node_id"": ""0.0-1.0-9.0"", ""clickTimes"": [10687, 11374], ""path"": [1, 3, 7, 13], ""trialID"": 19, ""clicks"": [""12"", ""13""], ""condition"": 0}"
A19LTHK3TA57SF:37ZHEEHM6WMKTLSSFSLJQUADL6337I,70,1488086340663,"{""rt"": [8569, 755, 3367], ""trial_type"": ""graph"", ""infoCost"": 0.1, ""minTime"": 45, ""delays"": [3, 3, 3], ""actionTimes"": [8569, 13422, 20826], ""time_elapsed"": 2149068, ""actions"": [""down"", ""down"", ""right""], ""trialIndex"": 11, ""score"": 5.8, ""trial_index"": 70, ""internal_node_id"": ""0.0-1.0-10.0"", ""clickTimes"": [17880, 18752], ""path"": [1, 5, 9, 17], ""trialID"": 15, ""clicks"": [""16"", ""17""], ""condition"": 0}"
A19LTHK3TA57SF:37ZHEEHM6WMKTLSSFSLJQUADL6337I,71,1488086398674,"{""rt"": [10182, 2511, 6239], ""trial_type"": ""graph"", ""infoCost"": 0.1, ""minTime"": 45, ""delays"": [3, 3, 3], ""actionTimes"": [10182, 16652, 26903], ""time_elapsed"": 2207080, ""actions"": [""left"", ""left"", ""up""], ""trialIndex"": 12, ""score"": 33.8, ""trial_index"": 71, ""internal_node_id"": ""0.0-1.0-11.0"", ""clickTimes"": [23349, 24150], ""path"": [1, 4, 8, 14], ""trialID"": 5, ""clicks"": [""14"", ""15""], ""condition"": 0}"
A19LTHK3TA57SF:37ZHEEHM6WMKTLSSFSLJQUADL6337I,72,1488086457292,"{""rt"": [2035, 543, 2862], ""trial_type"": ""graph"", ""infoCost"": 0.1, ""minTime"": 45, ""delays"": [3, 3, 3], ""actionTimes"": [2035, 6658, 13510], ""time_elapsed"": 2265698, ""actions"": [""up"", ""up"", ""right""], ""trialIndex"": 13, ""score"": 46.8, ""trial_index"": 72, ""internal_node_id"": ""0.0-1.0-12.0"", ""clickTimes"": [11178, 11777], ""path"": [1, 3, 7, 13], ""trialID"": 13, ""clicks"": [""12"", ""13""], ""condition"": 0}"
A19LTHK3TA57SF:37ZHEEHM6WMKTLSSFSLJQUADL6337I,73,1488086513049,"{""rt"": [2929, 631, 3168], ""trial_type"": ""graph"", ""infoCost"": 0.1, ""minTime"": 45, ""delays"": [3, 3, 3], ""actionTimes"": [2930, 7521, 14646], ""time_elapsed"": 2321455, ""actions"": [""up"", ""up"", ""right""], ""trialIndex"": 14, ""score"": 8.8, ""trial_index"": 73, ""internal_node_id"": ""0.0-1.0-13.0"", ""clickTimes"": [11815, 12471], ""path"": [1, 3, 7, 13], ""trialID"": 6, ""clicks"": [""12"", ""13""], ""condition"": 0}"
A19LTHK3TA57SF:37ZHEEHM6WMKTLSSFSLJQUADL6337I,74,1488086570859,"{""rt"": [1704, 658, 2797], ""trial_type"": ""graph"", ""infoCost"": 0.1, ""minTime"": 45, ""delays"": [3, 3, 3], ""actionTimes"": [1704, 6355, 13149], ""time_elapsed"": 2379265, ""actions"": [""left"", ""left"", ""down""], ""trialIndex"": 15, ""score"": 31.8, ""trial_index"": 74, ""internal_node_id"": ""0.0-1.0-14.0"", ""clickTimes"": [10768, 11543], ""path"": [1, 4, 8, 15], ""trialID"": 8, ""clicks"": [""14"", ""15""], ""condition"": 0}"
A19LTHK3TA57SF:37ZHEEHM6WMKTLSSFSLJQUADL6337I,75,1488086634339,"{""rt"": [5309, 837, 43160], ""trial_type"": ""graph"", ""infoCost"": 0.1, ""minTime"": 45, ""delays"": [3, 3, 3], ""actionTimes"": [5309, 10150, 57321], ""time_elapsed"": 2442745, ""actions"": [""down"", ""down"", ""right""], ""trialIndex"": 16, ""score"": 15.7, ""trial_index"": 75, ""internal_node_id"": ""0.0-1.0-15.0"", ""clickTimes"": [4165, 14630, 15493], ""path"": [1, 5, 9, 17], ""trialID"": 11, ""clicks"": [""5"", ""17"", ""16""], ""condition"": 0}"
A19LTHK3TA57SF:37ZHEEHM6WMKTLSSFSLJQUADL6337I,76,1488086692199,"{""rt"": [1688, 539, 2490], ""trial_type"": ""graph"", ""infoCost"": 0.1, ""minTime"": 45, ""delays"": [3, 3, 3], ""actionTimes"": [1688, 6208, 12685], ""time_elapsed"": 2500604, ""actions"": [""up"", ""up"", ""left""], ""trialIndex"": 17, ""score"": 14.8, ""trial_index"": 76, ""internal_node_id"": ""0.0-1.0-16.0"", ""clickTimes"": [10941, 11485], ""path"": [1, 3, 7, 12], ""trialID"": 2, ""clicks"": [""12"", ""13""], ""condition"": 0}"
A19LTHK3TA57SF:37ZHEEHM6WMKTLSSFSLJQUADL6337I,77,1488086749007,"{""rt"": [3730, 495, 2575], ""trial_type"": ""graph"", ""infoCost"": 0.1, ""minTime"": 45, ""delays"": [3, 3, 3], ""actionTimes"": [3730, 8211, 14787], ""time_elapsed"": 2557413, ""actions"": [""left"", ""left"", ""up""], ""trialIndex"": 18, ""score"": 15.8, ""trial_index"": 77, ""internal_node_id"": ""0.0-1.0-17.0"", ""clickTimes"": [12555, 13235], ""path"": [1, 4, 8, 14], ""trialID"": 17, ""clicks"": [""14"", ""15""], ""condition"": 0}"
A19LTHK3TA57SF:37ZHEEHM6WMKTLSSFSLJQUADL6337I,78,1488086806786,"{""rt"": [3133, 667, 590], ""trial_type"": ""graph"", ""infoCost"": 0.1, ""minTime"": 45, ""delays"": [3, 3, 3], ""actionTimes"": [3133, 7827, 12445], ""time_elapsed"": 2615192, ""actions"": [""right"", ""right"", ""up""], ""trialIndex"": 19, ""score"": 8, ""trial_index"": 78, ""internal_node_id"": ""0.0-1.0-18.0"", ""clickTimes"": [], ""path"": [1, 2, 6, 10], ""trialID"": 18, ""clicks"": [], ""condition"": 0}"
A19LTHK3TA57SF:37ZHEEHM6WMKTLSSFSLJQUADL6337I,79,1488086866776,"{""rt"": [5343, 633, 5094], ""trial_type"": ""graph"", ""infoCost"": 0.1, ""minTime"": 45, ""delays"": [3, 3, 3], ""actionTimes"": [5344, 10036, 19200], ""time_elapsed"": 2675182, ""actions"": [""up"", ""up"", ""right""], ""trialIndex"": 20, ""score"": 20.4, ""trial_index"": 79, ""internal_node_id"": ""0.0-1.0-19.0"", ""clickTimes"": [1581, 2348, 2917, 3532, 14516, 15444], ""path"": [1, 3, 7, 13], ""trialID"": 1, ""clicks"": [""4"", ""3"", ""2"", ""5"", ""12"", ""13""], ""condition"": 0}"
A19LTHK3TA57SF:37ZHEEHM6WMKTLSSFSLJQUADL6337I,80,1488086878464,"{""rt"": 10654, ""trial_type"": ""button-response"", ""button_pressed"": 0, ""stimulus"": ""<h1 id=\""thiscompletesthehit\"">This completes the HIT</h1>\n\n<p>One or your trials has been randomly selected and we will pay you 5% of your profit on that trial as a bonus. You will be awarded a bonus of $1.02</p>"", ""internal_node_id"": ""0.0-2.0"", ""time_elapsed"": 2686869, ""trial_index"": 80}"
A19LVWX8ZLO6CS:3WQ3B2KGE8GBLUH355JG73HC6CJB1N,0,1488091314080,"{""rt"": 113338, ""trial_type"": ""instructions"", ""view_history"": ""[{\""page_index\"":0,\""viewing_time\"":43619},{\""page_index\"":1,\""viewing_time\"":49670},{\""page_index\"":2,\""viewing_time\"":20048}]"", ""internal_node_id"": ""0.0-0.0-0.0"", ""time_elapsed"": 113338, ""trial_index"": 0}"
A19LVWX8ZLO6CS:3WQ3B2KGE8GBLUH355JG73HC6CJB1N,1,1488091373470,"{""rt"": 55778, ""trial_type"": ""survey-multi-choice"", ""responses"": ""[\""1\"",\""True\"",\""$0.10\"",\""As many or as few as I wish\"",\""My earnings for each round are equal to the <i>sum</i> of the values of all locations I visit (minus the cost of making observations), and I will be paid the earnings from one of the 20 rounds.\""]"", ""internal_node_id"": ""0.0-0.0-1.0"", ""time_elapsed"": 172729, ""questions"": ""[\""How many flights are there per round?\"",\""True or false: The hidden values will change each time I start a new round.\"",\""How much does it cost to observe each hidden value?\"",\""How many hidden values am I allowed to observe in each round?\"",\""Which statement is TRUE?\""]"", ""correct"": [false, true, true, true, true], ""trial_index"": 1}"
A19LVWX8ZLO6CS:3WQ3B2KGE8GBLUH355JG73HC6CJB1N,2,1488091431014,"{""rt"": 56542, ""trial_type"": ""instructions"", ""view_history"": ""[{\""page_index\"":0,\""viewing_time\"":8693},{\""page_index\"":1,\""viewing_time\"":4561},{\""page_index\"":2,\""viewing_time\"":12887},{\""page_index\"":1,\""viewing_time\"":20200},{\""page_index\"":0,\""viewing_time\"":8400},{\""page_index\"":1,\""viewing_time\"":1072},{\""page_index\"":2,\""viewing_time\"":728}]"", ""internal_node_id"": ""0.0-0.1-0.1"", ""time_elapsed"": 230273, ""trial_index"": 2}"
A19LVWX8ZLO6CS:3WQ3B2KGE8GBLUH355JG73HC6CJB1N,3,1488091473015,"{""rt"": 24944, ""trial_type"": ""survey-multi-choice"", ""responses"": ""[\""1\"",\""True\"",\""$0.10\"",\""At most 15\"",\""My earnings for each round are equal to the <i>sum</i> of the values of all locations I visit (minus the cost of making observations), and I will be paid the earnings from one of the 20 rounds.\""]"", ""internal_node_id"": ""0.0-0.1-1.1"", ""time_elapsed"": 272273, ""questions"": ""[\""How many flights are there per round?\"",\""True or false: The hidden values will change each time I start a new round.\"",\""How much does it cost to observe each hidden value?\"",\""How many hidden values am I allowed to observe in each round?\"",\""Which statement is TRUE?\""]"", ""correct"": [false, true, true, false, true], ""trial_index"": 3}"
A19LVWX8ZLO6CS:3WQ3B2KGE8GBLUH355JG73HC6CJB1N,4,1488091546419,"{""rt"": 72404, ""trial_type"": ""instructions"", ""view_history"": ""[{\""page_index\"":0,\""viewing_time\"":25902},{\""page_index\"":1,\""viewing_time\"":19607},{\""page_index\"":2,\""viewing_time\"":26895}]"", ""internal_node_id"": ""0.0-0.2-0.2"", ""time_elapsed"": 345678, ""trial_index"": 4}"
