A12O9P1OTMJOPW:3W92K5RLWUHPIQGSB9CSB5O1OFUV5G,0,1495136784192,"{""rt"": 106278, ""trial_type"": ""instructions"", ""view_history"": ""[{\""page_index\"":0,\""viewing_time\"":41170},{\""page_index\"":1,\""viewing_time\"":21119},{\""page_index\"":0,\""viewing_time\"":5784},{\""page_index\"":1,\""viewing_time\"":8469},{\""page_index\"":2,\""viewing_time\"":29736}]"", ""internal_node_id"": ""0.0-0.0-0.0"", ""time_elapsed"": 106280, ""trial_index"": 0}"
A12O9P1OTMJOPW:3W92K5RLWUHPIQGSB9CSB5O1OFUV5G,1,1495136809071,"{""rt"": 20989, ""trial_type"": ""survey-multi-choice"", ""responses"": ""[\""1\"",\""True\"",\""$1.60\"",\""As many or as few as I wish\"",\""5% of my score on a random round\""]"", ""internal_node_id"": ""0.0-0.0-1.0"", ""time_elapsed"": 131159, ""questions"": ""[\""How many flights are there per round?\"",\""True or false: The hidden values will change each time I start a new round.\"",\""How much does it cost to observe each hidden value?\"",\""How many hidden values am I allowed to observe in each round?\"",\""How is your bonus determined?\""]"", ""correct"": [false, true, true, true, true], ""trial_index"": 1}"
A12O9P1OTMJOPW:3W92K5RLWUHPIQGSB9CSB5O1OFUV5G,2,1495136865070,"{""rt"": 54997, ""trial_type"": ""instructions"", ""view_history"": ""[{\""page_index\"":0,\""viewing_time\"":24038},{\""page_index\"":1,\""viewing_time\"":17467},{\""page_index\"":2,\""viewing_time\"":13492}]"", ""internal_node_id"": ""0.0-0.1-0.1"", ""time_elapsed"": 187158, ""trial_index"": 2}"
A12O9P1OTMJOPW:3W92K5RLWUHPIQGSB9CSB5O1OFUV5G,3,1495136963620,"{""rt"": 97527, ""trial_type"": ""survey-multi-choice"", ""responses"": ""[\""3\"",\""True\"",\""$1.60\"",\""As many or as few as I wish\"",\""5% of my score on a random round\""]"", ""internal_node_id"": ""0.0-0.1-1.1"", ""time_elapsed"": 285707, ""questions"": ""[\""How many flights are there per round?\"",\""True or false: The hidden values will change each time I start a new round.\"",\""How much does it cost to observe each hidden value?\"",\""How many hidden values am I allowed to observe in each round?\"",\""How is your bonus determined?\""]"", ""correct"": [true, true, true, true, true], ""trial_index"": 3}"
A12O9P1OTMJOPW:3W92K5RLWUHPIQGSB9CSB5O1OFUV5G,4,1495137021436,"{""rt"": [7031, 3245, 2436], ""trial_type"": ""graph"", ""infoCost"": 1.6, ""feedback"": true, ""minTime"": 45, ""delays"": [8, 0, 1], ""actionTimes"": [7031, 19181, 22357], ""time_elapsed"": 343524, ""actions"": [""down"", ""down"", ""right""], ""trialIndex"": 1, ""score"": 10, ""trial_index"": 4, ""internal_node_id"": ""0.0-1.0-0.0"", ""clickTimes"": [], ""path"": [1, 5, 9, 17], ""trialID"": 0, ""clicks"": [], ""condition"": 0}"
A12O9P1OTMJOPW:3W92K5RLWUHPIQGSB9CSB5O1OFUV5G,5,1495137080389,"{""rt"": [7282, 8161, 2634], ""trial_type"": ""graph"", ""infoCost"": 1.6, ""feedback"": true, ""minTime"": 45, ""delays"": [8, 0, 1], ""actionTimes"": [7282, 24345, 27786], ""time_elapsed"": 402477, ""actions"": [""down"", ""down"", ""left""], ""trialIndex"": 2, ""score"": 14, ""trial_index"": 5, ""internal_node_id"": ""0.0-1.0-1.0"", ""clickTimes"": [], ""path"": [1, 5, 9, 16], ""trialID"": 4, ""clicks"": [], ""condition"": 0}"
A12O9P1OTMJOPW:3W92K5RLWUHPIQGSB9CSB5O1OFUV5G,6,1495137139652,"{""rt"": [1851, 605, 3093], ""trial_type"": ""graph"", ""infoCost"": 1.6, ""feedback"": true, ""minTime"": 45, ""delays"": [8, 0, 1], ""actionTimes"": [1852, 11501, 15371], ""time_elapsed"": 461740, ""actions"": [""up"", ""up"", ""right""], ""trialIndex"": 3, ""score"": 13, ""trial_index"": 6, ""internal_node_id"": ""0.0-1.0-2.0"", ""clickTimes"": [], ""path"": [1, 3, 7, 13], ""trialID"": 2, ""clicks"": [], ""condition"": 0}"
A12O9P1OTMJOPW:3W92K5RLWUHPIQGSB9CSB5O1OFUV5G,7,1495137197332,"{""rt"": [2857, 1165, 1327], ""trial_type"": ""graph"", ""infoCost"": 1.6, ""feedback"": true, ""minTime"": 45, ""delays"": [8, 0, 1], ""actionTimes"": [2857, 13026, 15146], ""time_elapsed"": 519419, ""actions"": [""right"", ""right"", ""up""], ""trialIndex"": 4, ""score"": 8, ""trial_index"": 7, ""internal_node_id"": ""0.0-1.0-3.0"", ""clickTimes"": [], ""path"": [1, 2, 6, 10], ""trialID"": 1, ""clicks"": [], ""condition"": 0}"
A12O9P1OTMJOPW:3W92K5RLWUHPIQGSB9CSB5O1OFUV5G,8,1495137255532,"{""rt"": [17215, 497, 845], ""trial_type"": ""graph"", ""infoCost"": 1.6, ""feedback"": true, ""minTime"": 45, ""delays"": [8, 0, 1], ""actionTimes"": [17215, 27920, 29479], ""time_elapsed"": 577619, ""actions"": [""right"", ""right"", ""up""], ""trialIndex"": 5, ""score"": 12.4, ""trial_index"": 8, ""internal_node_id"": ""0.0-1.0-4.0"", ""clickTimes"": [2822, 5309, 6163, 6991, 11051, 14558], ""path"": [1, 2, 6, 10], ""trialID"": 7, ""clicks"": [""4"", ""5"", ""2"", ""3"", ""10"", ""11""], ""condition"": 0}"
A12O9P1OTMJOPW:3W92K5RLWUHPIQGSB9CSB5O1OFUV5G,9,1495137313307,"{""rt"": [12654, 543, 1044], ""trial_type"": ""graph"", ""infoCost"": 1.6, ""feedback"": true, ""minTime"": 45, ""delays"": [8, 0, 1], ""actionTimes"": [12655, 22870, 24670], ""time_elapsed"": 635395, ""actions"": [""left"", ""left"", ""down""], ""trialIndex"": 6, ""score"": 21.6, ""trial_index"": 9, ""internal_node_id"": ""0.0-1.0-5.0"", ""clickTimes"": [5708, 7556, 9365, 10350], ""path"": [1, 4, 8, 15], ""trialID"": 6, ""clicks"": [""5"", ""4"", ""15"", ""14""], ""condition"": 0}"
A12O9P1OTMJOPW:3W92K5RLWUHPIQGSB9CSB5O1OFUV5G,10,1495137372772,"{""rt"": [20888, 731, 807], ""trial_type"": ""graph"", ""infoCost"": 1.6, ""feedback"": true, ""minTime"": 45, ""delays"": [8, 0, 1], ""actionTimes"": [20888, 31432, 33048], ""time_elapsed"": 694860, ""actions"": [""right"", ""right"", ""up""], ""trialIndex"": 7, ""score"": 26, ""trial_index"": 10, ""internal_node_id"": ""0.0-1.0-6.0"", ""clickTimes"": [5583, 10566, 11671, 17313, 18777], ""path"": [1, 2, 6, 10], ""trialID"": 3, ""clicks"": [""3"", ""12"", ""13"", ""2"", ""10""], ""condition"": 0}"
A12O9P1OTMJOPW:3W92K5RLWUHPIQGSB9CSB5O1OFUV5G,11,1495137432067,"{""rt"": [16234, 706, 1327], ""trial_type"": ""graph"", ""infoCost"": 1.6, ""feedback"": true, ""minTime"": 45, ""delays"": [8, 0, 1], ""actionTimes"": [16234, 26978, 29082], ""time_elapsed"": 754155, ""actions"": [""down"", ""down"", ""left""], ""trialIndex"": 8, ""score"": 6.4, ""trial_index"": 11, ""internal_node_id"": ""0.0-1.0-7.0"", ""clickTimes"": [3367, 6983, 8066, 9439, 10950, 11849], ""path"": [1, 5, 9, 16], ""trialID"": 5, ""clicks"": [""2"", ""10"", ""11"", ""5"", ""17"", ""16""], ""condition"": 0}"
A12O9P1OTMJOPW:3W92K5RLWUHPIQGSB9CSB5O1OFUV5G,12,1495137436695,"{""rt"": 3621, ""trial_type"": ""button-response"", ""button_pressed"": 0, ""stimulus"": ""<h1 id=\""thiscompletesthehit\"">This completes the HIT</h1>\n\n<p>One or your trials has been randomly selected and we will pay you 5% of your profit on that trial as a bonus. You will be awarded a bonus of $0.65</p>"", ""internal_node_id"": ""0.0-2.0"", ""time_elapsed"": 758783, ""trial_index"": 12}"
A1F7TXGSWETWX0:3GS6S824SQX6N4M35JDARO71M9WWNH,0,1495138584751,"{""rt"": 82526, ""trial_type"": ""instructions"", ""view_history"": ""[{\""page_index\"":0,\""viewing_time\"":36221},{\""page_index\"":1,\""viewing_time\"":29733},{\""page_index\"":2,\""viewing_time\"":16572}]"", ""internal_node_id"": ""0.0-0.0-0.0"", ""time_elapsed"": 82528, ""trial_index"": 0}"
A1F7TXGSWETWX0:3GS6S824SQX6N4M35JDARO71M9WWNH,1,1495138613153,"{""rt"": 27377, ""trial_type"": ""survey-multi-choice"", ""responses"": ""[\""3\"",\""True\"",\""$1.60\"",\""As many or as few as I wish\"",\""5% of my score on a random round\""]"", ""internal_node_id"": ""0.0-0.0-1.0"", ""time_elapsed"": 110930, ""questions"": ""[\""How many flights are there per round?\"",\""True or false: The hidden values will change each time I start a new round.\"",\""How much does it cost to observe each hidden value?\"",\""How many hidden values am I allowed to observe in each round?\"",\""How is your bonus determined?\""]"", ""correct"": [true, true, true, true, true], ""trial_index"": 1}"
A1F7TXGSWETWX0:3GS6S824SQX6N4M35JDARO71M9WWNH,2,1495138678335,"{""rt"": [9055, 6142, 5575], ""trial_type"": ""graph"", ""infoCost"": 1.6, ""feedback"": true, ""minTime"": 45, ""delays"": [8, 0, 1], ""actionTimes"": [9055, 24390, 30885], ""time_elapsed"": 176111, ""actions"": [""up"", ""up"", ""left""], ""trialIndex"": 1, ""score"": 23, ""trial_index"": 2, ""internal_node_id"": ""0.0-1.0-0.0"", ""clickTimes"": [], ""path"": [1, 3, 7, 12], ""trialID"": 4, ""clicks"": [], ""condition"": 0}"
A1F7TXGSWETWX0:3GS6S824SQX6N4M35JDARO71M9WWNH,3,1495138738886,"{""rt"": [3803, 3168, 5337], ""trial_type"": ""graph"", ""infoCost"": 1.6, ""feedback"": true, ""minTime"": 45, ""delays"": [8, 0, 1], ""actionTimes"": [3804, 16156, 22436], ""time_elapsed"": 236663, ""actions"": [""down"", ""down"", ""right""], ""trialIndex"": 2, ""score"": 10, ""trial_index"": 3, ""internal_node_id"": ""0.0-1.0-1.0"", ""clickTimes"": [], ""path"": [1, 5, 9, 17], ""trialID"": 1, ""clicks"": [], ""condition"": 0}"
A1F7TXGSWETWX0:3GS6S824SQX6N4M35JDARO71M9WWNH,4,1495138795367,"{""rt"": [1164, 627, 4019], ""trial_type"": ""graph"", ""infoCost"": 1.6, ""feedback"": true, ""minTime"": 45, ""delays"": [8, 0, 1], ""actionTimes"": [1164, 10964, 15916], ""time_elapsed"": 293144, ""actions"": [""left"", ""left"", ""up""], ""trialIndex"": 3, ""score"": 40, ""trial_index"": 4, ""internal_node_id"": ""0.0-1.0-2.0"", ""clickTimes"": [], ""path"": [1, 4, 8, 14], ""trialID"": 0, ""clicks"": [], ""condition"": 0}"
A1F7TXGSWETWX0:3GS6S824SQX6N4M35JDARO71M9WWNH,5,1495138852207,"{""rt"": [840, 833, 2520], ""trial_type"": ""graph"", ""infoCost"": 1.6, ""feedback"": true, ""minTime"": 45, ""delays"": [8, 0, 1], ""actionTimes"": [840, 10848, 14288], ""time_elapsed"": 349983, ""actions"": [""right"", ""right"", ""down""], ""trialIndex"": 4, ""score"": 10, ""trial_index"": 5, ""internal_node_id"": ""0.0-1.0-3.0"", ""clickTimes"": [], ""path"": [1, 2, 6, 11], ""trialID"": 7, ""clicks"": [], ""condition"": 0}"
A1F7TXGSWETWX0:3GS6S824SQX6N4M35JDARO71M9WWNH,6,1495138912943,"{""rt"": [1387, 39506, 1175], ""trial_type"": ""graph"", ""infoCost"": 1.6, ""feedback"": true, ""minTime"": 45, ""delays"": [8, 0, 1], ""actionTimes"": [1387, 50068, 52163], ""time_elapsed"": 410719, ""actions"": [""up"", ""up"", ""left""], ""trialIndex"": 5, ""score"": -1, ""trial_index"": 6, ""internal_node_id"": ""0.0-1.0-4.0"", ""clickTimes"": [], ""path"": [1, 3, 7, 12], ""trialID"": 3, ""clicks"": [], ""condition"": 0}"
A1F7TXGSWETWX0:3GS6S824SQX6N4M35JDARO71M9WWNH,7,1495138970223,"{""rt"": [1468, 576, 732], ""trial_type"": ""graph"", ""infoCost"": 1.6, ""feedback"": true, ""minTime"": 45, ""delays"": [8, 0, 1], ""actionTimes"": [1469, 11212, 12860], ""time_elapsed"": 468000, ""actions"": [""down"", ""down"", ""left""], ""trialIndex"": 6, ""score"": 4, ""trial_index"": 7, ""internal_node_id"": ""0.0-1.0-5.0"", ""clickTimes"": [], ""path"": [1, 5, 9, 16], ""trialID"": 2, ""clicks"": [], ""condition"": 0}"
A1F7TXGSWETWX0:3GS6S824SQX6N4M35JDARO71M9WWNH,8,1495139039951,"{""rt"": [1379, 1210, 10232], ""trial_type"": ""graph"", ""infoCost"": 1.6, ""feedback"": true, ""minTime"": 45, ""delays"": [8, 0, 1], ""actionTimes"": [1379, 11755, 22923], ""time_elapsed"": 537728, ""actions"": [""left"", ""left"", ""down""], ""trialIndex"": 7, ""score"": 4, ""trial_index"": 8, ""internal_node_id"": ""0.0-1.0-6.0"", ""clickTimes"": [], ""path"": [1, 4, 8, 15], ""trialID"": 5, ""clicks"": [], ""condition"": 0}"
A1F7TXGSWETWX0:3GS6S824SQX6N4M35JDARO71M9WWNH,9,1495139098688,"{""rt"": [3987, 12272, 2922], ""trial_type"": ""graph"", ""infoCost"": 1.6, ""feedback"": true, ""minTime"": 45, ""delays"": [8, 0, 1], ""actionTimes"": [3987, 25436, 29259], ""time_elapsed"": 596465, ""actions"": [""right"", ""right"", ""up""], ""trialIndex"": 8, ""score"": 16, ""trial_index"": 9, ""internal_node_id"": ""0.0-1.0-7.0"", ""clickTimes"": [], ""path"": [1, 2, 6, 10], ""trialID"": 6, ""clicks"": [], ""condition"": 0}"
A1F7TXGSWETWX0:3GS6S824SQX6N4M35JDARO71M9WWNH,10,1495139109284,"{""rt"": 9586, ""trial_type"": ""button-response"", ""button_pressed"": 0, ""stimulus"": ""<h1 id=\""thiscompletesthehit\"">This completes the HIT</h1>\n\n<p>One or your trials has been randomly selected and we will pay you 5% of your profit on that trial as a bonus. You will be awarded a bonus of $0.00</p>"", ""internal_node_id"": ""0.0-2.0"", ""time_elapsed"": 607061, ""trial_index"": 10}"
A1GVMH6U54ZT8V:30OG32W0SUBC640CKJJ45I01F5RNES,0,1495137846339,"{""rt"": 159702, ""trial_type"": ""instructions"", ""view_history"": ""[{\""page_index\"":0,\""viewing_time\"":67578},{\""page_index\"":1,\""viewing_time\"":72040},{\""page_index\"":2,\""viewing_time\"":20082}]"", ""internal_node_id"": ""0.0-0.0-0.0"", ""time_elapsed"": 159703, ""trial_index"": 0}"
A1GVMH6U54ZT8V:30OG32W0SUBC640CKJJ45I01F5RNES,1,1495137905667,"{""rt"": 55602, ""trial_type"": ""survey-multi-choice"", ""responses"": ""[\""1\"",\""True\"",\""$1.60\"",\""As many or as few as I wish\"",\""5% of my best score on any round\""]"", ""internal_node_id"": ""0.0-0.0-1.0"", ""time_elapsed"": 219031, ""questions"": ""[\""How many flights are there per round?\"",\""True or false: The hidden values will change each time I start a new round.\"",\""How much does it cost to observe each hidden value?\"",\""How many hidden values am I allowed to observe in each round?\"",\""How is your bonus determined?\""]"", ""correct"": [false, true, true, true, false], ""trial_index"": 1}"
A1GVMH6U54ZT8V:30OG32W0SUBC640CKJJ45I01F5RNES,2,1495138166474,"{""rt"": 259799, ""trial_type"": ""instructions"", ""view_history"": ""[{\""page_index\"":0,\""viewing_time\"":29775},{\""page_index\"":1,\""viewing_time\"":96905},{\""page_index\"":2,\""viewing_time\"":28438},{\""page_index\"":1,\""viewing_time\"":2605},{\""page_index\"":0,\""viewing_time\"":59026},{\""page_index\"":1,\""viewing_time\"":15651},{\""page_index\"":2,\""viewing_time\"":1354},{\""page_index\"":1,\""viewing_time\"":6343},{\""page_index\"":2,\""viewing_time\"":19701}]"", ""internal_node_id"": ""0.0-0.1-0.1"", ""time_elapsed"": 479838, ""trial_index"": 2}"
A1GVMH6U54ZT8V:30OG32W0SUBC640CKJJ45I01F5RNES,3,1495138192556,"{""rt"": 18248, ""trial_type"": ""survey-multi-choice"", ""responses"": ""[\""1\"",\""True\"",\""$1.60\"",\""As many or as few as I wish\"",\""5% of my score on a random round\""]"", ""internal_node_id"": ""0.0-0.1-1.1"", ""time_elapsed"": 505920, ""questions"": ""[\""How many flights are there per round?\"",\""True or false: The hidden values will change each time I start a new round.\"",\""How much does it cost to observe each hidden value?\"",\""How many hidden values am I allowed to observe in each round?\"",\""How is your bonus determined?\""]"", ""correct"": [false, true, true, true, true], ""trial_index"": 3}"
A1GVMH6U54ZT8V:30OG32W0SUBC640CKJJ45I01F5RNES,4,1495138229475,"{""rt"": 35913, ""trial_type"": ""instructions"", ""view_history"": ""[{\""page_index\"":0,\""viewing_time\"":30130},{\""page_index\"":1,\""viewing_time\"":1600},{\""page_index\"":2,\""viewing_time\"":4182}]"", ""internal_node_id"": ""0.0-0.2-0.2"", ""time_elapsed"": 542840, ""trial_index"": 4}"
A1GVMH6U54ZT8V:30OG32W0SUBC640CKJJ45I01F5RNES,5,1495138243290,"{""rt"": 12684, ""trial_type"": ""survey-multi-choice"", ""responses"": ""[\""3\"",\""True\"",\""$1.60\"",\""As many or as few as I wish\"",\""5% of my score on a random round\""]"", ""internal_node_id"": ""0.0-0.2-1.2"", ""time_elapsed"": 556654, ""questions"": ""[\""How many flights are there per round?\"",\""True or false: The hidden values will change each time I start a new round.\"",\""How much does it cost to observe each hidden value?\"",\""How many hidden values am I allowed to observe in each round?\"",\""How is your bonus determined?\""]"", ""correct"": [true, true, true, true, true], ""trial_index"": 5}"
A1GVMH6U54ZT8V:30OG32W0SUBC640CKJJ45I01F5RNES,6,1495138303473,"{""rt"": [3633, 2343, 11024], ""trial_type"": ""graph"", ""infoCost"": 1.6, ""feedback"": true, ""minTime"": 45, ""delays"": [8, 0, 1], ""actionTimes"": [3635, 15768, 28058], ""time_elapsed"": 616836, ""actions"": [""right"", ""right"", ""up""], ""trialIndex"": 1, ""score"": 32.4, ""trial_index"": 6, ""internal_node_id"": ""0.0-1.0-0.0"", ""clickTimes"": [24617], ""path"": [1, 2, 6, 10], ""trialID"": 3, ""clicks"": [""10""], ""condition"": 0}"
A1GVMH6U54ZT8V:30OG32W0SUBC640CKJJ45I01F5RNES,7,1495138372387,"{""rt"": [2482, 866, 4385], ""trial_type"": ""graph"", ""infoCost"": 1.6, ""feedback"": true, ""minTime"": 45, ""delays"": [8, 0, 1], ""actionTimes"": [2483, 13091, 18791], ""time_elapsed"": 685751, ""actions"": [""down"", ""down"", ""right""], ""trialIndex"": 2, ""score"": 38.8, ""trial_index"": 7, ""internal_node_id"": ""0.0-1.0-1.0"", ""clickTimes"": [15709, 17506], ""path"": [1, 5, 9, 17], ""trialID"": 4, ""clicks"": [""17"", ""16""], ""condition"": 0}"
A1GVMH6U54ZT8V:30OG32W0SUBC640CKJJ45I01F5RNES,8,1495138429080,"{""rt"": [8303, 573, 3973], ""trial_type"": ""graph"", ""infoCost"": 1.6, ""feedback"": true, ""minTime"": 45, ""delays"": [8, 0, 1], ""actionTimes"": [8303, 18766, 24003], ""time_elapsed"": 742443, ""actions"": [""right"", ""right"", ""up""], ""trialIndex"": 3, ""score"": 30.8, ""trial_index"": 8, ""internal_node_id"": ""0.0-1.0-2.0"", ""clickTimes"": [21526, 22640], ""path"": [1, 2, 6, 10], ""trialID"": 2, ""clicks"": [""10"", ""11""], ""condition"": 0}"
A1GVMH6U54ZT8V:30OG32W0SUBC640CKJJ45I01F5RNES,9,1495138497151,"{""rt"": [5475, 1381, 4732], ""trial_type"": ""graph"", ""infoCost"": 1.6, ""feedback"": true, ""minTime"": 45, ""delays"": [8, 0, 1], ""actionTimes"": [5476, 16667, 22672], ""time_elapsed"": 810514, ""actions"": [""left"", ""left"", ""down""], ""trialIndex"": 4, ""score"": 24.8, ""trial_index"": 9, ""internal_node_id"": ""0.0-1.0-3.0"", ""clickTimes"": [19877, 21253], ""path"": [1, 4, 8, 15], ""trialID"": 6, ""clicks"": [""14"", ""15""], ""condition"": 0}"
A1GVMH6U54ZT8V:30OG32W0SUBC640CKJJ45I01F5RNES,10,1495138553900,"{""rt"": [2242, 692, 2648], ""trial_type"": ""graph"", ""infoCost"": 1.6, ""feedback"": true, ""minTime"": 45, ""delays"": [8, 0, 1], ""actionTimes"": [2242, 12696, 16746], ""time_elapsed"": 867263, ""actions"": [""up"", ""up"", ""right""], ""trialIndex"": 5, ""score"": 11.8, ""trial_index"": 10, ""internal_node_id"": ""0.0-1.0-4.0"", ""clickTimes"": [14475, 15860], ""path"": [1, 3, 7, 13], ""trialID"": 0, ""clicks"": [""13"", ""12""], ""condition"": 0}"
A1GVMH6U54ZT8V:30OG32W0SUBC640CKJJ45I01F5RNES,11,1495138639241,"{""rt"": [7727, 763, 4033], ""trial_type"": ""graph"", ""infoCost"": 1.6, ""feedback"": true, ""minTime"": 45, ""delays"": [8, 0, 1], ""actionTimes"": [7727, 18241, 23629], ""time_elapsed"": 952605, ""actions"": [""down"", ""down"", ""right""], ""trialIndex"": 6, ""score"": -1.2, ""trial_index"": 11, ""internal_node_id"": ""0.0-1.0-5.0"", ""clickTimes"": [21292, 22382], ""path"": [1, 5, 9, 17], ""trialID"": 7, ""clicks"": [""17"", ""16""], ""condition"": 0}"
A1GVMH6U54ZT8V:30OG32W0SUBC640CKJJ45I01F5RNES,12,1495138707771,"{""rt"": [15387, 5809, 3805], ""trial_type"": ""graph"", ""infoCost"": 1.6, ""feedback"": true, ""minTime"": 45, ""delays"": [8, 0, 1], ""actionTimes"": [15387, 33696, 38712], ""time_elapsed"": 1021135, ""actions"": [""left"", ""left"", ""up""], ""trialIndex"": 7, ""score"": 24.4, ""trial_index"": 12, ""internal_node_id"": ""0.0-1.0-6.0"", ""clickTimes"": [4019, 5191, 6825, 7820, 36415, 37600], ""path"": [1, 4, 8, 14], ""trialID"": 5, ""clicks"": [""3"", ""2"", ""5"", ""4"", ""15"", ""14""], ""condition"": 0}"
A1GVMH6U54ZT8V:30OG32W0SUBC640CKJJ45I01F5RNES,13,1495138811068,"{""rt"": [5143, 2482, 8344], ""trial_type"": ""graph"", ""infoCost"": 1.6, ""feedback"": true, ""minTime"": 45, ""delays"": [8, 0, 1], ""actionTimes"": [5143, 19138, 28798], ""time_elapsed"": 1124431, ""actions"": [""up"", ""up"", ""left""], ""trialIndex"": 8, ""score"": 14.6, ""trial_index"": 13, ""internal_node_id"": ""0.0-1.0-7.0"", ""clickTimes"": [3222, 4276, 21304, 22451], ""path"": [1, 3, 7, 12], ""trialID"": 1, ""clicks"": [""3"", ""4"", ""13"", ""12""], ""condition"": 0}"
A1GVMH6U54ZT8V:30OG32W0SUBC640CKJJ45I01F5RNES,14,1495138850109,"{""rt"": 37984, ""trial_type"": ""button-response"", ""button_pressed"": 0, ""stimulus"": ""<h1 id=\""thiscompletesthehit\"">This completes the HIT</h1>\n\n<p>One or your trials has been randomly selected and we will pay you 5% of your profit on that trial as a bonus. You will be awarded a bonus of $1.94</p>"", ""internal_node_id"": ""0.0-2.0"", ""time_elapsed"": 1163474, ""trial_index"": 14}"
A1MV2B8I02QVOE:3LPW2N6LKT2P5BRS6J2NFJMIA7KU5N,0,1495134411793,"{""rt"": 89482, ""trial_type"": ""instructions"", ""view_history"": ""[{\""page_index\"":0,\""viewing_time\"":40817},{\""page_index\"":1,\""viewing_time\"":32100},{\""page_index\"":2,\""viewing_time\"":16563}]"", ""internal_node_id"": ""0.0-0.0-0.0"", ""time_elapsed"": 89484, ""trial_index"": 0}"
A1MV2B8I02QVOE:3LPW2N6LKT2P5BRS6J2NFJMIA7KU5N,1,1495134500063,"{""rt"": 87227, ""trial_type"": ""survey-multi-choice"", ""responses"": ""[\""3\"",\""True\"",\""$1.60\"",\""As many or as few as I wish\"",\""5% of my score on a random round\""]"", ""internal_node_id"": ""0.0-0.0-1.0"", ""time_elapsed"": 177754, ""questions"": ""[\""How many flights are there per round?\"",\""True or false: The hidden values will change each time I start a new round.\"",\""How much does it cost to observe each hidden value?\"",\""How many hidden values am I allowed to observe in each round?\"",\""How is your bonus determined?\""]"", ""correct"": [true, true, true, true, true], ""trial_index"": 1}"
A1MV2B8I02QVOE:3LPW2N6LKT2P5BRS6J2NFJMIA7KU5N,2,1495134564606,"{""rt"": [4633, 1062, 6521], ""trial_type"": ""graph"", ""infoCost"": 1.6, ""feedback"": true, ""minTime"": 45, ""delays"": [8, 0, 1], ""actionTimes"": [4634, 15716, 23485], ""time_elapsed"": 242298, ""actions"": [""right"", ""right"", ""up""], ""trialIndex"": 1, ""score"": 32.4, ""trial_index"": 2, ""internal_node_id"": ""0.0-1.0-0.0"", ""clickTimes"": [20357], ""path"": [1, 2, 6, 10], ""trialID"": 2, ""clicks"": [""10""], ""condition"": 0}"
A1MV2B8I02QVOE:3LPW2N6LKT2P5BRS6J2NFJMIA7KU5N,3,1495134653180,"{""rt"": [5030, 570, 4421], ""trial_type"": ""graph"", ""infoCost"": 1.6, ""feedback"": true, ""minTime"": 45, ""delays"": [8, 0, 1], ""actionTimes"": [5030, 15410, 21174], ""time_elapsed"": 330872, ""actions"": [""right"", ""right"", ""up""], ""trialIndex"": 2, ""score"": 4.8, ""trial_index"": 3, ""internal_node_id"": ""0.0-1.0-1.0"", ""clickTimes"": [19246, 20029], ""path"": [1, 2, 6, 10], ""trialID"": 1, ""clicks"": [""10"", ""11""], ""condition"": 0}"
A1MV2B8I02QVOE:3LPW2N6LKT2P5BRS6J2NFJMIA7KU5N,4,1495134736926,"{""rt"": [5403, 1966, 56806], ""trial_type"": ""graph"", ""infoCost"": 1.6, ""feedback"": true, ""minTime"": 45, ""delays"": [8, 0, 1], ""actionTimes"": [5403, 18393, 76439], ""time_elapsed"": 414618, ""actions"": [""up"", ""up"", ""right""], ""trialIndex"": 3, ""score"": -3.8, ""trial_index"": 4, ""internal_node_id"": ""0.0-1.0-2.0"", ""clickTimes"": [2017, 19824, 20672], ""path"": [1, 3, 7, 13], ""trialID"": 5, ""clicks"": [""3"", ""13"", ""12""], ""condition"": 0}"
A1MV2B8I02QVOE:3LPW2N6LKT2P5BRS6J2NFJMIA7KU5N,5,1495134818006,"{""rt"": [11412, 1477, 2217], ""trial_type"": ""graph"", ""infoCost"": 1.6, ""feedback"": true, ""minTime"": 45, ""delays"": [8, 0, 1], ""actionTimes"": [11414, 27689, 31483], ""time_elapsed"": 495697, ""actions"": [""left"", ""left"", ""down""], ""trialIndex"": 4, ""score"": 13.6, ""trial_index"": 5, ""internal_node_id"": ""0.0-1.0-3.0"", ""clickTimes"": [2285, 3134, 3917, 4465, 5090, 6065, 6897, 29269, 30269], ""path"": [1, 4, 8, 15], ""trialID"": 6, ""clicks"": [""3"", ""4"", ""5"", ""2"", ""6"", ""7"", ""8"", ""14"", ""15""], ""condition"": 0}"
A1MV2B8I02QVOE:3LPW2N6LKT2P5BRS6J2NFJMIA7KU5N,6,1495134883267,"{""rt"": [11472, 562, 30], ""trial_type"": ""graph"", ""infoCost"": 1.6, ""feedback"": true, ""minTime"": 45, ""delays"": [8, 0, 1], ""actionTimes"": [11472, 24948, 26406], ""time_elapsed"": 560959, ""actions"": [""left"", ""left"", ""up""], ""trialIndex"": 5, ""score"": 8.4, ""trial_index"": 6, ""internal_node_id"": ""0.0-1.0-4.0"", ""clickTimes"": [5359, 6595, 7698, 8491, 9256, 10118], ""path"": [1, 4, 8, 14], ""trialID"": 7, ""clicks"": [""12"", ""10"", ""17"", ""16"", ""15"", ""14""], ""condition"": 0}"
A1MV2B8I02QVOE:3LPW2N6LKT2P5BRS6J2NFJMIA7KU5N,7,1495134940298,"{""rt"": [2140, 1243, 6039], ""trial_type"": ""graph"", ""infoCost"": 1.6, ""feedback"": true, ""minTime"": 45, ""delays"": [8, 0, 1], ""actionTimes"": [2140, 13495, 20934], ""time_elapsed"": 617990, ""actions"": [""down"", ""down"", ""right""], ""trialIndex"": 6, ""score"": 6.8, ""trial_index"": 7, ""internal_node_id"": ""0.0-1.0-5.0"", ""clickTimes"": [17776, 18735], ""path"": [1, 5, 9, 17], ""trialID"": 0, ""clicks"": [""17"", ""16""], ""condition"": 0}"
A1MV2B8I02QVOE:3LPW2N6LKT2P5BRS6J2NFJMIA7KU5N,8,1495135004233,"{""rt"": [1837, 1183, 2050], ""trial_type"": ""graph"", ""infoCost"": 1.6, ""feedback"": true, ""minTime"": 45, ""delays"": [8, 0, 1], ""actionTimes"": [1838, 12934, 16277], ""time_elapsed"": 681924, ""actions"": [""left"", ""left"", ""down""], ""trialIndex"": 7, ""score"": 22.8, ""trial_index"": 8, ""internal_node_id"": ""0.0-1.0-6.0"", ""clickTimes"": [14380, 15344], ""path"": [1, 4, 8, 15], ""trialID"": 3, ""clicks"": [""14"", ""15""], ""condition"": 0}"
A1MV2B8I02QVOE:3LPW2N6LKT2P5BRS6J2NFJMIA7KU5N,9,1495135065690,"{""rt"": [2085, 2677, 2404], ""trial_type"": ""graph"", ""infoCost"": 1.6, ""feedback"": true, ""minTime"": 45, ""delays"": [8, 0, 1], ""actionTimes"": [2085, 16095, 21973], ""time_elapsed"": 743382, ""actions"": [""up"", ""up"", ""left""], ""trialIndex"": 8, ""score"": 19.8, ""trial_index"": 9, ""internal_node_id"": ""0.0-1.0-7.0"", ""clickTimes"": [19573, 20686], ""path"": [1, 3, 7, 12], ""trialID"": 4, ""clicks"": [""13"", ""12""], ""condition"": 0}"
A1MV2B8I02QVOE:3LPW2N6LKT2P5BRS6J2NFJMIA7KU5N,10,1495135070352,"{""rt"": 3631, ""trial_type"": ""button-response"", ""button_pressed"": 0, ""stimulus"": ""<h1 id=\""thiscompletesthehit\"">This completes the HIT</h1>\n\n<p>One or your trials has been randomly selected and we will pay you 5% of your profit on that trial as a bonus. You will be awarded a bonus of $0.68</p>"", ""internal_node_id"": ""0.0-2.0"", ""time_elapsed"": 748044, ""trial_index"": 10}"
A1R3W25JDAUQ09:392CY0QWG1R201SSYXUZROSTGH34IN,0,1495136378526,"{""rt"": 320374, ""trial_type"": ""instructions"", ""view_history"": ""[{\""page_index\"":0,\""viewing_time\"":21113},{\""page_index\"":1,\""viewing_time\"":1893},{\""page_index\"":2,\""viewing_time\"":296602},{\""page_index\"":3,\""viewing_time\"":765}]"", ""internal_node_id"": ""0.0-0.0-0.0"", ""time_elapsed"": 320377, ""trial_index"": 0}"
A1R3W25JDAUQ09:392CY0QWG1R201SSYXUZROSTGH34IN,1,1495136389548,"{""rt"": 8483, ""trial_type"": ""survey-multi-choice"", ""responses"": ""[\""3\"",\""True\"",\""$1.60\"",\""At most 10\"",\""10% of my total score on all rounds\"",\""The length of the delay is based on how much more money I could have earned by planning and deciding better.\""]"", ""internal_node_id"": ""0.0-0.0-1.0"", ""time_elapsed"": 331400, ""questions"": ""[\""How many flights are there per round?\"",\""True or false: The hidden values will change each time I start a new round.\"",\""How much does it cost to observe each hidden value?\"",\""How many hidden values am I allowed to observe in each round?\"",\""How is your bonus determined?\"",\""What does the feedback teach you?\""]"", ""correct"": [true, true, true, false, false, false], ""trial_index"": 1}"
A1R3W25JDAUQ09:392CY0QWG1R201SSYXUZROSTGH34IN,2,1495136417092,"{""rt"": 26540, ""trial_type"": ""instructions"", ""view_history"": ""[{\""page_index\"":0,\""viewing_time\"":8483},{\""page_index\"":1,\""viewing_time\"":5184},{\""page_index\"":2,\""viewing_time\"":8200},{\""page_index\"":3,\""viewing_time\"":4673}]"", ""internal_node_id"": ""0.0-0.1-0.1"", ""time_elapsed"": 358944, ""trial_index"": 2}"
A1R3W25JDAUQ09:392CY0QWG1R201SSYXUZROSTGH34IN,3,1495136438900,"{""rt"": 18903, ""trial_type"": ""survey-multi-choice"", ""responses"": ""[\""4\"",\""True\"",\""$1.60\"",\""As many or as few as I wish\"",\""5% of my best score on any round\"",\""All of the above.\""]"", ""internal_node_id"": ""0.0-0.1-1.1"", ""time_elapsed"": 380751, ""questions"": ""[\""How many flights are there per round?\"",\""True or false: The hidden values will change each time I start a new round.\"",\""How much does it cost to observe each hidden value?\"",\""How many hidden values am I allowed to observe in each round?\"",\""How is your bonus determined?\"",\""What does the feedback teach you?\""]"", ""correct"": [false, true, true, true, false, true], ""trial_index"": 3}"
A1R3W25JDAUQ09:392CY0QWG1R201SSYXUZROSTGH34IN,4,1495136557859,"{""rt"": 117956, ""trial_type"": ""instructions"", ""view_history"": ""[{\""page_index\"":0,\""viewing_time\"":84133},{\""page_index\"":1,\""viewing_time\"":15590},{\""page_index\"":2,\""viewing_time\"":11824},{\""page_index\"":3,\""viewing_time\"":6409}]"", ""internal_node_id"": ""0.0-0.2-0.2"", ""time_elapsed"": 499711, ""trial_index"": 4}"
A1R3W25JDAUQ09:392CY0QWG1R201SSYXUZROSTGH34IN,5,1495136681575,"{""rt"": 122662, ""trial_type"": ""survey-multi-choice"", ""responses"": ""[\""3\"",\""True\"",\""$1.60\"",\""As many or as few as I wish\"",\""5% of my score on a random round\"",\""All of the above.\""]"", ""internal_node_id"": ""0.0-0.2-1.2"", ""time_elapsed"": 623427, ""questions"": ""[\""How many flights are there per round?\"",\""True or false: The hidden values will change each time I start a new round.\"",\""How much does it cost to observe each hidden value?\"",\""How many hidden values am I allowed to observe in each round?\"",\""How is your bonus determined?\"",\""What does the feedback teach you?\""]"", ""correct"": [true, true, true, true, true, true], ""trial_index"": 5}"
A1R3W25JDAUQ09:392CY0QWG1R201SSYXUZROSTGH34IN,6,1495136850941,"{""rt"": [12410, 15404, 3829], ""trial_type"": ""graph"", ""infoCost"": 1.6, ""feedback"": true, ""minTime"": 45, ""delays"": [27, 0, 0], ""actionTimes"": [12411, 58550, 63508], ""time_elapsed"": 792792, ""actions"": [""down"", ""down"", ""right""], ""trialIndex"": 1, ""score"": -2.8, ""trial_index"": 6, ""internal_node_id"": ""0.0-1.0-0.0"", ""clickTimes"": [1605, 2579, 3611, 5034, 5715, 6362, 67347, 68100], ""path"": [1, 5, 9, 17], ""trialID"": 1, ""clicks"": [""3"", ""13"", ""12"", ""2"", ""10"", ""11"", ""9"", ""5""], ""condition"": 2}"
A1R3W25JDAUQ09:392CY0QWG1R201SSYXUZROSTGH34IN,7,1495136944954,"{""rt"": [8603, 1873, 2400], ""trial_type"": ""graph"", ""infoCost"": 1.6, ""feedback"": true, ""minTime"": 45, ""delays"": [24, 0, 0], ""actionTimes"": [8605, 39006, 42441], ""time_elapsed"": 886806, ""actions"": [""left"", ""left"", ""down""], ""trialIndex"": 2, ""score"": 20, ""trial_index"": 7, ""internal_node_id"": ""0.0-1.0-1.0"", ""clickTimes"": [2127, 3270, 4254, 5229, 6350], ""path"": [1, 4, 8, 15], ""trialID"": 6, ""clicks"": [""2"", ""4"", ""8"", ""15"", ""14""], ""condition"": 2}"
A1R3W25JDAUQ09:392CY0QWG1R201SSYXUZROSTGH34IN,8,1495137037814,"{""rt"": [15226, 3554, 2], ""trial_type"": ""graph"", ""infoCost"": 1.6, ""feedback"": true, ""minTime"": 45, ""delays"": [17, 0, 0], ""actionTimes"": [15226, 39317, 40339], ""time_elapsed"": 979666, ""actions"": [""up"", ""up"", ""right""], ""trialIndex"": 3, ""score"": 7, ""trial_index"": 8, ""internal_node_id"": ""0.0-1.0-2.0"", ""clickTimes"": [9912, 10986, 11906, 12666, 13442], ""path"": [1, 3, 7, 13], ""trialID"": 0, ""clicks"": [""2"", ""3"", ""7"", ""13"", ""12""], ""condition"": 2}"
A1R3W25JDAUQ09:392CY0QWG1R201SSYXUZROSTGH34IN,9,1495137233213,"{""rt"": [9078, 18862, 3183], ""trial_type"": ""graph"", ""infoCost"": 1.6, ""feedback"": true, ""minTime"": 45, ""delays"": [12, 0, 0], ""actionTimes"": [9078, 44974, 49314], ""time_elapsed"": 1175064, ""actions"": [""left"", ""left"", ""up""], ""trialIndex"": 4, ""score"": -4.4, ""trial_index"": 9, ""internal_node_id"": ""0.0-1.0-3.0"", ""clickTimes"": [2026, 3114, 3603, 4131, 5162, 6891, 7683, 46331, 47139], ""path"": [1, 4, 8, 14], ""trialID"": 2, ""clicks"": [""4"", ""3"", ""2"", ""5"", ""9"", ""6"", ""8"", ""14"", ""15""], ""condition"": 2}"
A1R3W25JDAUQ09:392CY0QWG1R201SSYXUZROSTGH34IN,10,1495137336244,"{""rt"": [11009, 33, 2], ""trial_type"": ""graph"", ""infoCost"": 1.6, ""feedback"": true, ""minTime"": 45, ""delays"": [39, 0, 0], ""actionTimes"": [11010, 55200, 56253], ""time_elapsed"": 1278096, ""actions"": [""right"", ""right"", ""up""], ""trialIndex"": 5, ""score"": 19.6, ""trial_index"": 10, ""internal_node_id"": ""0.0-1.0-4.0"", ""clickTimes"": [2781, 3764, 4428, 5013, 5772, 6340, 7300, 7884, 8584], ""path"": [1, 2, 6, 10], ""trialID"": 3, ""clicks"": [""2"", ""4"", ""3"", ""5"", ""17"", ""16"", ""10"", ""11"", ""6""], ""condition"": 2}"
A1R3W25JDAUQ09:392CY0QWG1R201SSYXUZROSTGH34IN,11,1495137425610,"{""rt"": [6765, 28, 211], ""trial_type"": ""graph"", ""infoCost"": 1.6, ""feedback"": true, ""minTime"": 45, ""delays"": [11, 0, 0], ""actionTimes"": [6766, 22504, 23799], ""time_elapsed"": 1367462, ""actions"": [""right"", ""right"", ""up""], ""trialIndex"": 6, ""score"": 10.8, ""trial_index"": 11, ""internal_node_id"": ""0.0-1.0-5.0"", ""clickTimes"": [968, 1630, 2095, 2637, 3463, 4150, 4999], ""path"": [1, 2, 6, 10], ""trialID"": 7, ""clicks"": [""2"", ""4"", ""5"", ""3"", ""10"", ""11"", ""6""], ""condition"": 2}"
A1R3W25JDAUQ09:392CY0QWG1R201SSYXUZROSTGH34IN,12,1495137529882,"{""rt"": [8613, 11690, 1], ""trial_type"": ""graph"", ""infoCost"": 1.6, ""feedback"": true, ""minTime"": 45, ""delays"": [47, 0, 0], ""actionTimes"": [8615, 72021, 73049], ""time_elapsed"": 1471733, ""actions"": [""down"", ""down"", ""right""], ""trialIndex"": 7, ""score"": 27.6, ""trial_index"": 12, ""internal_node_id"": ""0.0-1.0-6.0"", ""clickTimes"": [1948, 2482, 2956, 3972, 4690, 5291, 6548, 7163, 7651], ""path"": [1, 5, 9, 17], ""trialID"": 4, ""clicks"": [""2"", ""4"", ""3"", ""14"", ""15"", ""5"", ""17"", ""16"", ""9""], ""condition"": 2}"
A1R3W25JDAUQ09:392CY0QWG1R201SSYXUZROSTGH34IN,13,1495137618945,"{""rt"": [8653, 3581, 15], ""trial_type"": ""graph"", ""infoCost"": 1.6, ""feedback"": true, ""minTime"": 45, ""delays"": [37, 0, 0], ""actionTimes"": [8654, 53854, 54886], ""time_elapsed"": 1560797, ""actions"": [""left"", ""left"", ""up""], ""trialIndex"": 8, ""score"": 21.2, ""trial_index"": 13, ""internal_node_id"": ""0.0-1.0-7.0"", ""clickTimes"": [746, 1233, 1753, 2433, 3192, 3722, 6649, 7048], ""path"": [1, 4, 8, 14], ""trialID"": 5, ""clicks"": [""2"", ""4"", ""3"", ""14"", ""15"", ""8"", ""7"", ""13""], ""condition"": 2}"
A1R3W25JDAUQ09:392CY0QWG1R201SSYXUZROSTGH34IN,14,1495137621800,"{""rt"": 1827, ""trial_type"": ""button-response"", ""button_pressed"": 0, ""stimulus"": ""<h1 id=\""thiscompletesthehit\"">This completes the HIT</h1>\n\n<p>One or your trials has been randomly selected and we will pay you 5% of your profit on that trial as a bonus. You will be awarded a bonus of $0.35</p>"", ""internal_node_id"": ""0.0-2.0"", ""time_elapsed"": 1563652, ""trial_index"": 14}"
A1RG8PCK9V4QP:3QAVNHZ3EM4JSRGFS113W76LPVUALJ,0,1495140151948,"{""rt"": 117115, ""trial_type"": ""instructions"", ""view_history"": ""[{\""page_index\"":0,\""viewing_time\"":38626},{\""page_index\"":1,\""viewing_time\"":26787},{\""page_index\"":2,\""viewing_time\"":34326},{\""page_index\"":3,\""viewing_time\"":17375}]"", ""internal_node_id"": ""0.0-0.0-0.0"", ""time_elapsed"": 117115, ""trial_index"": 0}"
A1RG8PCK9V4QP:3QAVNHZ3EM4JSRGFS113W76LPVUALJ,1,1495140206499,"{""rt"": 49612, ""trial_type"": ""survey-multi-choice"", ""responses"": ""[\""3\"",\""True\"",\""$1.60\"",\""As many or as few as I wish\"",\""5% of my best score on any round\"",\""The length of the delay is based on how much more money I could have earned by planning and deciding better.\""]"", ""internal_node_id"": ""0.0-0.0-1.0"", ""time_elapsed"": 171665, ""questions"": ""[\""How many flights are there per round?\"",\""True or false: The hidden values will change each time I start a new round.\"",\""How much does it cost to observe each hidden value?\"",\""How many hidden values am I allowed to observe in each round?\"",\""How is your bonus determined?\"",\""What does the feedback teach you?\""]"", ""correct"": [true, true, true, true, false, false], ""trial_index"": 1}"
A1RG8PCK9V4QP:3QAVNHZ3EM4JSRGFS113W76LPVUALJ,2,1495140265138,"{""rt"": 57636, ""trial_type"": ""instructions"", ""view_history"": ""[{\""page_index\"":0,\""viewing_time\"":43910},{\""page_index\"":1,\""viewing_time\"":4437},{\""page_index\"":2,\""viewing_time\"":7788},{\""page_index\"":3,\""viewing_time\"":1500}]"", ""internal_node_id"": ""0.0-0.1-0.1"", ""time_elapsed"": 230305, ""trial_index"": 2}"
A1RG8PCK9V4QP:3QAVNHZ3EM4JSRGFS113W76LPVUALJ,3,1495140293362,"{""rt"": 23264, ""trial_type"": ""survey-multi-choice"", ""responses"": ""[\""3\"",\""True\"",\""$1.60\"",\""As many or as few as I wish\"",\""5% of my best score on any round\"",\""All of the above.\""]"", ""internal_node_id"": ""0.0-0.1-1.1"", ""time_elapsed"": 258529, ""questions"": ""[\""How many flights are there per round?\"",\""True or false: The hidden values will change each time I start a new round.\"",\""How much does it cost to observe each hidden value?\"",\""How many hidden values am I allowed to observe in each round?\"",\""How is your bonus determined?\"",\""What does the feedback teach you?\""]"", ""correct"": [true, true, true, true, false, true], ""trial_index"": 3}"
A1RG8PCK9V4QP:3QAVNHZ3EM4JSRGFS113W76LPVUALJ,4,1495140300112,"{""rt"": 5749, ""trial_type"": ""instructions"", ""view_history"": ""[{\""page_index\"":0,\""viewing_time\"":1461},{\""page_index\"":1,\""viewing_time\"":1662},{\""page_index\"":2,\""viewing_time\"":1588},{\""page_index\"":3,\""viewing_time\"":1038}]"", ""internal_node_id"": ""0.0-0.2-0.2"", ""time_elapsed"": 265279, ""trial_index"": 4}"
A1RG8PCK9V4QP:3QAVNHZ3EM4JSRGFS113W76LPVUALJ,5,1495140326325,"{""rt"": 18429, ""trial_type"": ""survey-multi-choice"", ""responses"": ""[\""3\"",\""True\"",\""$1.60\"",\""As many or as few as I wish\"",\""5% of my best score on any round\"",\""Whether I observed the rewards of relevant locations.\""]"", ""internal_node_id"": ""0.0-0.2-1.2"", ""time_elapsed"": 291492, ""questions"": ""[\""How many flights are there per round?\"",\""True or false: The hidden values will change each time I start a new round.\"",\""How much does it cost to observe each hidden value?\"",\""How many hidden values am I allowed to observe in each round?\"",\""How is your bonus determined?\"",\""What does the feedback teach you?\""]"", ""correct"": [true, true, true, true, false, false], ""trial_index"": 5}"
A1RG8PCK9V4QP:3QAVNHZ3EM4JSRGFS113W76LPVUALJ,6,1495140416364,"{""rt"": 89037, ""trial_type"": ""instructions"", ""view_history"": ""[{\""page_index\"":0,\""viewing_time\"":29874},{\""page_index\"":1,\""viewing_time\"":22575},{\""page_index\"":2,\""viewing_time\"":33388},{\""page_index\"":3,\""viewing_time\"":3200}]"", ""internal_node_id"": ""0.0-0.3-0.3"", ""time_elapsed"": 381530, ""trial_index"": 6}"
A1RG8PCK9V4QP:3QAVNHZ3EM4JSRGFS113W76LPVUALJ,7,1495140439027,"{""rt"": 21650, ""trial_type"": ""survey-multi-choice"", ""responses"": ""[\""3\"",\""True\"",\""$1.60\"",\""As many or as few as I wish\"",\""5% of my score on a random round\"",\""All of the above.\""]"", ""internal_node_id"": ""0.0-0.3-1.3"", ""time_elapsed"": 404194, ""questions"": ""[\""How many flights are there per round?\"",\""True or false: The hidden values will change each time I start a new round.\"",\""How much does it cost to observe each hidden value?\"",\""How many hidden values am I allowed to observe in each round?\"",\""How is your bonus determined?\"",\""What does the feedback teach you?\""]"", ""correct"": [true, true, true, true, true, true], ""trial_index"": 7}"
A1RG8PCK9V4QP:3QAVNHZ3EM4JSRGFS113W76LPVUALJ,8,1495140560129,"{""rt"": [25174, 34030, 2840], ""trial_type"": ""graph"", ""infoCost"": 1.6, ""feedback"": true, ""minTime"": 45, ""delays"": [42, 0, 0], ""actionTimes"": [25175, 104093, 107669], ""time_elapsed"": 525296, ""actions"": [""right"", ""right"", ""up""], ""trialIndex"": 1, ""score"": 18, ""trial_index"": 8, ""internal_node_id"": ""0.0-1.0-0.0"", ""clickTimes"": [7141, 10462, 12026, 12737, 13849, 15011, 15900, 18261, 21263, 21863], ""path"": [1, 2, 6, 10], ""trialID"": 3, ""clicks"": [""2"", ""5"", ""4"", ""3"", ""9"", ""17"", ""16"", ""10"", ""6"", ""11""], ""condition"": 2}"
A1RG8PCK9V4QP:3QAVNHZ3EM4JSRGFS113W76LPVUALJ,9,1495140725696,"{""rt"": [139200, 4936, 850], ""trial_type"": ""graph"", ""infoCost"": 1.6, ""feedback"": true, ""minTime"": 45, ""delays"": [9, 3, 0], ""actionTimes"": [139200, 155079, 159847], ""time_elapsed"": 690863, ""actions"": [""right"", ""right"", ""up""], ""trialIndex"": 2, ""score"": 10.8, ""trial_index"": 9, ""internal_node_id"": ""0.0-1.0-1.0"", ""clickTimes"": [134768, 135591, 136205, 136779, 151019, 152317, 152942], ""path"": [1, 2, 6, 10], ""trialID"": 7, ""clicks"": [""3"", ""2"", ""5"", ""4"", ""10"", ""6"", ""11""], ""condition"": 2}"
A1RG8PCK9V4QP:3QAVNHZ3EM4JSRGFS113W76LPVUALJ,10,1495140800696,"{""rt"": [15649, 720, 1428], ""trial_type"": ""graph"", ""infoCost"": 1.6, ""feedback"": true, ""minTime"": 45, ""delays"": [26, 0, 0], ""actionTimes"": [15649, 44123, 46322], ""time_elapsed"": 765863, ""actions"": [""up"", ""up"", ""right""], ""trialIndex"": 3, ""score"": 14.6, ""trial_index"": 10, ""internal_node_id"": ""0.0-1.0-2.0"", ""clickTimes"": [3944, 5994, 6756, 7294], ""path"": [1, 3, 7, 13], ""trialID"": 1, ""clicks"": [""3"", ""12"", ""13"", ""7""], ""condition"": 2}"
A1RG8PCK9V4QP:3QAVNHZ3EM4JSRGFS113W76LPVUALJ,11,1495140912968,"{""rt"": [19422, 1419, 1080], ""trial_type"": ""graph"", ""infoCost"": 1.6, ""feedback"": true, ""minTime"": 45, ""delays"": [61, 0, 0], ""actionTimes"": [19422, 85021, 86774], ""time_elapsed"": 878135, ""actions"": [""right"", ""right"", ""up""], ""trialIndex"": 4, ""score"": 8.4, ""trial_index"": 11, ""internal_node_id"": ""0.0-1.0-3.0"", ""clickTimes"": [3030, 3694, 4319, 4957, 6307, 6843, 7457, 8806, 9369, 10169, 11419, 12169, 12644, 13519, 13857, 14157], ""path"": [1, 2, 6, 10], ""trialID"": 2, ""clicks"": [""3"", ""4"", ""5"", ""2"", ""16"", ""9"", ""17"", ""15"", ""8"", ""14"", ""10"", ""6"", ""11"", ""13"", ""7"", ""12""], ""condition"": 2}"
A1RG8PCK9V4QP:3QAVNHZ3EM4JSRGFS113W76LPVUALJ,12,1495140973249,"{""rt"": [19150, 10430, 412], ""trial_type"": ""graph"", ""infoCost"": 1.6, ""feedback"": true, ""minTime"": 45, ""delays"": [8, 3, 0], ""actionTimes"": [19150, 39560, 43934], ""time_elapsed"": 938415, ""actions"": [""up"", ""up"", ""left""], ""trialIndex"": 5, ""score"": 25.8, ""trial_index"": 12, ""internal_node_id"": ""0.0-1.0-4.0"", ""clickTimes"": [3589, 4785, 6001, 6888, 30175, 31614, 38002], ""path"": [1, 3, 7, 12], ""trialID"": 6, ""clicks"": [""2"", ""4"", ""3"", ""5"", ""12"", ""7"", ""13""], ""condition"": 2}"
A1RG8PCK9V4QP:3QAVNHZ3EM4JSRGFS113W76LPVUALJ,13,1495141038161,"{""rt"": [17853, 5116, 370], ""trial_type"": ""graph"", ""infoCost"": 1.6, ""feedback"": true, ""minTime"": 45, ""delays"": [10, 3, 0], ""actionTimes"": [17853, 34917, 39238], ""time_elapsed"": 1003327, ""actions"": [""down"", ""down"", ""left""], ""trialIndex"": 6, ""score"": -7.2, ""trial_index"": 13, ""internal_node_id"": ""0.0-1.0-5.0"", ""clickTimes"": [2210, 3160, 9974, 10722, 30660, 32085, 32834], ""path"": [1, 5, 9, 16], ""trialID"": 0, ""clicks"": [""4"", ""3"", ""2"", ""5"", ""9"", ""16"", ""17""], ""condition"": 2}"
A1RG8PCK9V4QP:3QAVNHZ3EM4JSRGFS113W76LPVUALJ,14,1495141099280,"{""rt"": [16565, 2013, 228], ""trial_type"": ""graph"", ""infoCost"": 1.6, ""feedback"": true, ""minTime"": 45, ""delays"": [10, 1, 0], ""actionTimes"": [16565, 30757, 31885], ""time_elapsed"": 1064446, ""actions"": [""down"", ""down"", ""right""], ""trialIndex"": 7, ""score"": 32.4, ""trial_index"": 14, ""internal_node_id"": ""0.0-1.0-6.0"", ""clickTimes"": [7517, 8716, 10204, 11015, 12615, 29190], ""path"": [1, 5, 9, 17], ""trialID"": 4, ""clicks"": [""8"", ""6"", ""7"", ""9"", ""5"", ""17""], ""condition"": 2}"
A1RG8PCK9V4QP:3QAVNHZ3EM4JSRGFS113W76LPVUALJ,15,1495141192558,"{""rt"": [14815, 1145, 120], ""trial_type"": ""graph"", ""infoCost"": 1.6, ""feedback"": true, ""minTime"": 45, ""delays"": [41, 0, 0], ""actionTimes"": [14815, 60104, 60951], ""time_elapsed"": 1157724, ""actions"": [""left"", ""left"", ""up""], ""trialIndex"": 8, ""score"": 18, ""trial_index"": 15, ""internal_node_id"": ""0.0-1.0-7.0"", ""clickTimes"": [3827, 5127, 6264, 7403, 8501, 9541, 10115, 11640, 12353, 13214], ""path"": [1, 4, 8, 14], ""trialID"": 5, ""clicks"": [""7"", ""9"", ""6"", ""8"", ""2"", ""10"", ""11"", ""14"", ""15"", ""4""], ""condition"": 2}"
A1RG8PCK9V4QP:3QAVNHZ3EM4JSRGFS113W76LPVUALJ,16,1495141207000,"{""rt"": 13434, ""trial_type"": ""button-response"", ""button_pressed"": 0, ""stimulus"": ""<h1 id=\""thiscompletesthehit\"">This completes the HIT</h1>\n\n<p>One or your trials has been randomly selected and we will pay you 5% of your profit on that trial as a bonus. You will be awarded a bonus of $0.90</p>"", ""internal_node_id"": ""0.0-2.0"", ""time_elapsed"": 1172167, ""trial_index"": 16}"
A1RPQXFV02P72A:3UXUOQ9OKEXKD6RDO70TD2OKUBPA7A,0,1495139414698,"{""rt"": 69851, ""trial_type"": ""instructions"", ""view_history"": ""[{\""page_index\"":0,\""viewing_time\"":31057},{\""page_index\"":1,\""viewing_time\"":24034},{\""page_index\"":2,\""viewing_time\"":14759}]"", ""internal_node_id"": ""0.0-0.0-0.0"", ""time_elapsed"": 69853, ""trial_index"": 0}"
A1RPQXFV02P72A:3UXUOQ9OKEXKD6RDO70TD2OKUBPA7A,1,1495139441769,"{""rt"": 22422, ""trial_type"": ""survey-multi-choice"", ""responses"": ""[\""1\"",\""True\"",\""$1.60\"",\""As many or as few as I wish\"",\""5% of my score on a random round\""]"", ""internal_node_id"": ""0.0-0.0-1.0"", ""time_elapsed"": 96925, ""questions"": ""[\""How many flights are there per round?\"",\""True or false: The hidden values will change each time I start a new round.\"",\""How much does it cost to observe each hidden value?\"",\""How many hidden values am I allowed to observe in each round?\"",\""How is your bonus determined?\""]"", ""correct"": [false, true, true, true, true], ""trial_index"": 1}"
A1RPQXFV02P72A:3UXUOQ9OKEXKD6RDO70TD2OKUBPA7A,2,1495139477853,"{""rt"": 35082, ""trial_type"": ""instructions"", ""view_history"": ""[{\""page_index\"":0,\""viewing_time\"":21866},{\""page_index\"":1,\""viewing_time\"":9275},{\""page_index\"":2,\""viewing_time\"":3940}]"", ""internal_node_id"": ""0.0-0.1-0.1"", ""time_elapsed"": 133010, ""trial_index"": 2}"
A1RPQXFV02P72A:3UXUOQ9OKEXKD6RDO70TD2OKUBPA7A,3,1495139500154,"{""rt"": 19083, ""trial_type"": ""survey-multi-choice"", ""responses"": ""[\""2\"",\""True\"",\""$1.60\"",\""As many or as few as I wish\"",\""5% of my score on a random round\""]"", ""internal_node_id"": ""0.0-0.1-1.1"", ""time_elapsed"": 155310, ""questions"": ""[\""How many flights are there per round?\"",\""True or false: The hidden values will change each time I start a new round.\"",\""How much does it cost to observe each hidden value?\"",\""How many hidden values am I allowed to observe in each round?\"",\""How is your bonus determined?\""]"", ""correct"": [false, true, true, true, true], ""trial_index"": 3}"
A1RPQXFV02P72A:3UXUOQ9OKEXKD6RDO70TD2OKUBPA7A,4,1495139525529,"{""rt"": 24372, ""trial_type"": ""instructions"", ""view_history"": ""[{\""page_index\"":0,\""viewing_time\"":13167},{\""page_index\"":1,\""viewing_time\"":8538},{\""page_index\"":2,\""viewing_time\"":2667}]"", ""internal_node_id"": ""0.0-0.2-0.2"", ""time_elapsed"": 180685, ""trial_index"": 4}"
A1RPQXFV02P72A:3UXUOQ9OKEXKD6RDO70TD2OKUBPA7A,5,1495139540269,"{""rt"": 13708, ""trial_type"": ""survey-multi-choice"", ""responses"": ""[\""3\"",\""True\"",\""$1.60\"",\""As many or as few as I wish\"",\""5% of my score on a random round\""]"", ""internal_node_id"": ""0.0-0.2-1.2"", ""time_elapsed"": 195426, ""questions"": ""[\""How many flights are there per round?\"",\""True or false: The hidden values will change each time I start a new round.\"",\""How much does it cost to observe each hidden value?\"",\""How many hidden values am I allowed to observe in each round?\"",\""How is your bonus determined?\""]"", ""correct"": [true, true, true, true, true], ""trial_index"": 5}"
A1RPQXFV02P72A:3UXUOQ9OKEXKD6RDO70TD2OKUBPA7A,6,1495139605205,"{""rt"": [4508, 1294, 2], ""trial_type"": ""graph"", ""infoCost"": 1.6, ""feedback"": true, ""minTime"": 45, ""delays"": [8, 0, 1], ""actionTimes"": [4510, 18247, 21008], ""time_elapsed"": 260362, ""actions"": [""down"", ""down"", ""left""], ""trialIndex"": 1, ""score"": 14, ""trial_index"": 6, ""internal_node_id"": ""0.0-1.0-0.0"", ""clickTimes"": [], ""path"": [1, 5, 9, 16], ""trialID"": 4, ""clicks"": [], ""condition"": 0}"
A1RPQXFV02P72A:3UXUOQ9OKEXKD6RDO70TD2OKUBPA7A,7,1495139670887,"{""rt"": [4834, 1161, 2641], ""trial_type"": ""graph"", ""infoCost"": 1.6, ""feedback"": true, ""minTime"": 45, ""delays"": [8, 0, 1], ""actionTimes"": [4834, 18393, 23744], ""time_elapsed"": 326043, ""actions"": [""left"", ""left"", ""up""], ""trialIndex"": 2, ""score"": 18, ""trial_index"": 7, ""internal_node_id"": ""0.0-1.0-1.0"", ""clickTimes"": [], ""path"": [1, 4, 8, 14], ""trialID"": 7, ""clicks"": [], ""condition"": 0}"
A1RPQXFV02P72A:3UXUOQ9OKEXKD6RDO70TD2OKUBPA7A,8,1495139734094,"{""rt"": [3228, 971, 6959], ""trial_type"": ""graph"", ""infoCost"": 1.6, ""feedback"": true, ""minTime"": 45, ""delays"": [8, 0, 1], ""actionTimes"": [3229, 16583, 26293], ""time_elapsed"": 389251, ""actions"": [""left"", ""left"", ""up""], ""trialIndex"": 3, ""score"": 4, ""trial_index"": 8, ""internal_node_id"": ""0.0-1.0-2.0"", ""clickTimes"": [], ""path"": [1, 4, 8, 14], ""trialID"": 1, ""clicks"": [], ""condition"": 0}"
A1RPQXFV02P72A:3UXUOQ9OKEXKD6RDO70TD2OKUBPA7A,9,1495139800934,"{""rt"": [1271, 601, 2], ""trial_type"": ""graph"", ""infoCost"": 1.6, ""feedback"": true, ""minTime"": 45, ""delays"": [8, 0, 1], ""actionTimes"": [1271, 14468, 17440], ""time_elapsed"": 456091, ""actions"": [""right"", ""right"", ""down""], ""trialIndex"": 4, ""score"": 6, ""trial_index"": 9, ""internal_node_id"": ""0.0-1.0-3.0"", ""clickTimes"": [], ""path"": [1, 2, 6, 11], ""trialID"": 5, ""clicks"": [], ""condition"": 0}"
A1RPQXFV02P72A:3UXUOQ9OKEXKD6RDO70TD2OKUBPA7A,10,1495139865694,"{""rt"": [3238, 1058, 1382], ""trial_type"": ""graph"", ""infoCost"": 1.6, ""feedback"": true, ""minTime"": 45, ""delays"": [8, 0, 1], ""actionTimes"": [3238, 16747, 20970], ""time_elapsed"": 520851, ""actions"": [""down"", ""down"", ""left""], ""trialIndex"": 5, ""score"": 6, ""trial_index"": 10, ""internal_node_id"": ""0.0-1.0-4.0"", ""clickTimes"": [], ""path"": [1, 5, 9, 16], ""trialID"": 3, ""clicks"": [], ""condition"": 0}"
A1RPQXFV02P72A:3UXUOQ9OKEXKD6RDO70TD2OKUBPA7A,11,1495139931424,"{""rt"": [2283, 1328, 1660], ""trial_type"": ""graph"", ""infoCost"": 1.6, ""feedback"": true, ""minTime"": 45, ""delays"": [8, 0, 1], ""actionTimes"": [2284, 16295, 20726], ""time_elapsed"": 586581, ""actions"": [""up"", ""up"", ""right""], ""trialIndex"": 6, ""score"": 13, ""trial_index"": 11, ""internal_node_id"": ""0.0-1.0-5.0"", ""clickTimes"": [], ""path"": [1, 3, 7, 13], ""trialID"": 2, ""clicks"": [], ""condition"": 0}"
A1RPQXFV02P72A:3UXUOQ9OKEXKD6RDO70TD2OKUBPA7A,12,1495140009648,"{""rt"": [11243, 963, 4637], ""trial_type"": ""graph"", ""infoCost"": 1.6, ""feedback"": true, ""minTime"": 45, ""delays"": [8, 0, 1], ""actionTimes"": [11243, 34202, 41905], ""time_elapsed"": 664805, ""actions"": [""down"", ""down"", ""right""], ""trialIndex"": 7, ""score"": 0.4, ""trial_index"": 12, ""internal_node_id"": ""0.0-1.0-6.0"", ""clickTimes"": [1217, 4391, 6924, 9071, 37788, 39382], ""path"": [1, 5, 9, 17], ""trialID"": 0, ""clicks"": [""2"", ""4"", ""5"", ""3"", ""17"", ""16""], ""condition"": 0}"
A1RPQXFV02P72A:3UXUOQ9OKEXKD6RDO70TD2OKUBPA7A,13,1495140084758,"{""rt"": [19065, 676, 5], ""trial_type"": ""graph"", ""infoCost"": 1.6, ""feedback"": true, ""minTime"": 45, ""delays"": [8, 0, 1], ""actionTimes"": [19065, 44029, 46861], ""time_elapsed"": 739915, ""actions"": [""up"", ""up"", ""left""], ""trialIndex"": 8, ""score"": 24.2, ""trial_index"": 13, ""internal_node_id"": ""0.0-1.0-7.0"", ""clickTimes"": [1876, 5069, 6884, 9880, 11582, 12861, 14655, 17343], ""path"": [1, 3, 7, 12], ""trialID"": 6, ""clicks"": [""10"", ""14"", ""13"", ""15"", ""17"", ""16"", ""12"", ""11""], ""condition"": 0}"
A1RPQXFV02P72A:3UXUOQ9OKEXKD6RDO70TD2OKUBPA7A,14,1495140091276,"{""rt"": 5493, ""trial_type"": ""button-response"", ""button_pressed"": 0, ""stimulus"": ""<h1 id=\""thiscompletesthehit\"">This completes the HIT</h1>\n\n<p>One or your trials has been randomly selected and we will pay you 5% of your profit on that trial as a bonus. You will be awarded a bonus of $0.65</p>"", ""internal_node_id"": ""0.0-2.0"", ""time_elapsed"": 746433, ""trial_index"": 14}"
A1SF18PR3JYUYZ:3018Q3ZVOIQUVPBSXLYZIJFKVNIRAP,0,1495138505923,"{""rt"": 109236, ""trial_type"": ""instructions"", ""view_history"": ""[{\""page_index\"":0,\""viewing_time\"":37693},{\""page_index\"":1,\""viewing_time\"":26558},{\""page_index\"":2,\""viewing_time\"":33288},{\""page_index\"":3,\""viewing_time\"":11697}]"", ""internal_node_id"": ""0.0-0.0-0.0"", ""time_elapsed"": 109238, ""trial_index"": 0}"
A1SF18PR3JYUYZ:3018Q3ZVOIQUVPBSXLYZIJFKVNIRAP,1,1495138560563,"{""rt"": 50345, ""trial_type"": ""survey-multi-choice"", ""responses"": ""[\""2\"",\""True\"",\""$1.60\"",\""As many or as few as I wish\"",\""5% of my score on a random round\"",\""All of the above.\""]"", ""internal_node_id"": ""0.0-0.0-1.0"", ""time_elapsed"": 163878, ""questions"": ""[\""How many flights are there per round?\"",\""True or false: The hidden values will change each time I start a new round.\"",\""How much does it cost to observe each hidden value?\"",\""How many hidden values am I allowed to observe in each round?\"",\""How is your bonus determined?\"",\""What does the feedback teach you?\""]"", ""correct"": [false, true, true, true, true, true], ""trial_index"": 1}"
A1SF18PR3JYUYZ:3018Q3ZVOIQUVPBSXLYZIJFKVNIRAP,2,1495138628192,"{""rt"": 66627, ""trial_type"": ""instructions"", ""view_history"": ""[{\""page_index\"":0,\""viewing_time\"":34349},{\""page_index\"":1,\""viewing_time\"":20807},{\""page_index\"":2,\""viewing_time\"":3512},{\""page_index\"":3,\""viewing_time\"":7959}]"", ""internal_node_id"": ""0.0-0.1-0.1"", ""time_elapsed"": 231507, ""trial_index"": 2}"
A1SF18PR3JYUYZ:3018Q3ZVOIQUVPBSXLYZIJFKVNIRAP,3,1495138645566,"{""rt"": 14799, ""trial_type"": ""survey-multi-choice"", ""responses"": ""[\""1\"",\""True\"",\""$1.60\"",\""As many or as few as I wish\"",\""5% of my score on a random round\"",\""All of the above.\""]"", ""internal_node_id"": ""0.0-0.1-1.1"", ""time_elapsed"": 248881, ""questions"": ""[\""How many flights are there per round?\"",\""True or false: The hidden values will change each time I start a new round.\"",\""How much does it cost to observe each hidden value?\"",\""How many hidden values am I allowed to observe in each round?\"",\""How is your bonus determined?\"",\""What does the feedback teach you?\""]"", ""correct"": [false, true, true, true, true, true], ""trial_index"": 3}"
A1SF18PR3JYUYZ:3018Q3ZVOIQUVPBSXLYZIJFKVNIRAP,4,1495138694731,"{""rt"": 48164, ""trial_type"": ""instructions"", ""view_history"": ""[{\""page_index\"":0,\""viewing_time\"":9377},{\""page_index\"":1,\""viewing_time\"":2145},{\""page_index\"":2,\""viewing_time\"":25948},{\""page_index\"":3,\""viewing_time\"":10694}]"", ""internal_node_id"": ""0.0-0.2-0.2"", ""time_elapsed"": 298046, ""trial_index"": 4}"
A1SF18PR3JYUYZ:3018Q3ZVOIQUVPBSXLYZIJFKVNIRAP,5,1495138733045,"{""rt"": 35251, ""trial_type"": ""survey-multi-choice"", ""responses"": ""[\""1\"",\""True\"",\""$1.60\"",\""As many or as few as I wish\"",\""5% of my score on a random round\"",\""All of the above.\""]"", ""internal_node_id"": ""0.0-0.2-1.2"", ""time_elapsed"": 336360, ""questions"": ""[\""How many flights are there per round?\"",\""True or false: The hidden values will change each time I start a new round.\"",\""How much does it cost to observe each hidden value?\"",\""How many hidden values am I allowed to observe in each round?\"",\""How is your bonus determined?\"",\""What does the feedback teach you?\""]"", ""correct"": [false, true, true, true, true, true], ""trial_index"": 5}"
A1SF18PR3JYUYZ:3018Q3ZVOIQUVPBSXLYZIJFKVNIRAP,6,1495138832903,"{""rt"": 98856, ""trial_type"": ""instructions"", ""view_history"": ""[{\""page_index\"":0,\""viewing_time\"":25033},{\""page_index\"":1,\""viewing_time\"":24867},{\""page_index\"":2,\""viewing_time\"":37261},{\""page_index\"":3,\""viewing_time\"":11694}]"", ""internal_node_id"": ""0.0-0.3-0.3"", ""time_elapsed"": 436218, ""trial_index"": 6}"
A1SF18PR3JYUYZ:3018Q3ZVOIQUVPBSXLYZIJFKVNIRAP,7,1495138867844,"{""rt"": 32438, ""trial_type"": ""survey-multi-choice"", ""responses"": ""[\""1\"",\""True\"",\""$1.60\"",\""As many or as few as I wish\"",\""5% of my score on a random round\"",\""The length of the delay is based on how much more money I could have earned by planning and deciding better.\""]"", ""internal_node_id"": ""0.0-0.3-1.3"", ""time_elapsed"": 471158, ""questions"": ""[\""How many flights are there per round?\"",\""True or false: The hidden values will change each time I start a new round.\"",\""How much does it cost to observe each hidden value?\"",\""How many hidden values am I allowed to observe in each round?\"",\""How is your bonus determined?\"",\""What does the feedback teach you?\""]"", ""correct"": [false, true, true, true, true, false], ""trial_index"": 7}"
A1SF18PR3JYUYZ:3018Q3ZVOIQUVPBSXLYZIJFKVNIRAP,8,1495138879229,"{""rt"": 10384, ""trial_type"": ""instructions"", ""view_history"": ""[{\""page_index\"":0,\""viewing_time\"":6520},{\""page_index\"":1,\""viewing_time\"":1532},{\""page_index\"":2,\""viewing_time\"":1451},{\""page_index\"":3,\""viewing_time\"":881}]"", ""internal_node_id"": ""0.0-0.4-0.4"", ""time_elapsed"": 482544, ""trial_index"": 8}"
A1SF18PR3JYUYZ:3018Q3ZVOIQUVPBSXLYZIJFKVNIRAP,9,1495138890659,"{""rt"": 10421, ""trial_type"": ""survey-multi-choice"", ""responses"": ""[\""3\"",\""True\"",\""$1.60\"",\""As many or as few as I wish\"",\""5% of my score on a random round\"",\""All of the above.\""]"", ""internal_node_id"": ""0.0-0.4-1.4"", ""time_elapsed"": 493973, ""questions"": ""[\""How many flights are there per round?\"",\""True or false: The hidden values will change each time I start a new round.\"",\""How much does it cost to observe each hidden value?\"",\""How many hidden values am I allowed to observe in each round?\"",\""How is your bonus determined?\"",\""What does the feedback teach you?\""]"", ""correct"": [true, true, true, true, true, true], ""trial_index"": 9}"
A1SL65Z68BK1UT:351SEKWQS0H1WG1CCNTKMLTGA3GMDY,0,1495139396674,"{""rt"": 35793, ""trial_type"": ""instructions"", ""view_history"": ""[{\""page_index\"":0,\""viewing_time\"":11020},{\""page_index\"":1,\""viewing_time\"":7812},{\""page_index\"":2,\""viewing_time\"":9105},{\""page_index\"":3,\""viewing_time\"":7853}]"", ""internal_node_id"": ""0.0-0.0-0.0"", ""time_elapsed"": 35796, ""trial_index"": 0}"
A1SL65Z68BK1UT:351SEKWQS0H1WG1CCNTKMLTGA3GMDY,1,1495139421299,"{""rt"": 22396, ""trial_type"": ""survey-multi-choice"", ""responses"": ""[\""1\"",\""True\"",\""$1.60\"",\""As many or as few as I wish\"",\""5% of my best score on any round\"",\""All of the above.\""]"", ""internal_node_id"": ""0.0-0.0-1.0"", ""time_elapsed"": 60423, ""questions"": ""[\""How many flights are there per round?\"",\""True or false: The hidden values will change each time I start a new round.\"",\""How much does it cost to observe each hidden value?\"",\""How many hidden values am I allowed to observe in each round?\"",\""How is your bonus determined?\"",\""What does the feedback teach you?\""]"", ""correct"": [false, true, true, true, false, true], ""trial_index"": 1}"
A1SL65Z68BK1UT:351SEKWQS0H1WG1CCNTKMLTGA3GMDY,2,1495139439295,"{""rt"": 16993, ""trial_type"": ""instructions"", ""view_history"": ""[{\""page_index\"":0,\""viewing_time\"":7303},{\""page_index\"":1,\""viewing_time\"":1019},{\""page_index\"":2,\""viewing_time\"":7606},{\""page_index\"":3,\""viewing_time\"":1064}]"", ""internal_node_id"": ""0.0-0.1-0.1"", ""time_elapsed"": 78419, ""trial_index"": 2}"
A1SL65Z68BK1UT:351SEKWQS0H1WG1CCNTKMLTGA3GMDY,3,1495139455049,"{""rt"": 13550, ""trial_type"": ""survey-multi-choice"", ""responses"": ""[\""2\"",\""True\"",\""$1.60\"",\""As many or as few as I wish\"",\""5% of my best score on any round\"",\""All of the above.\""]"", ""internal_node_id"": ""0.0-0.1-1.1"", ""time_elapsed"": 94172, ""questions"": ""[\""How many flights are there per round?\"",\""True or false: The hidden values will change each time I start a new round.\"",\""How much does it cost to observe each hidden value?\"",\""How many hidden values am I allowed to observe in each round?\"",\""How is your bonus determined?\"",\""What does the feedback teach you?\""]"", ""correct"": [false, true, true, true, false, true], ""trial_index"": 3}"
A1SL65Z68BK1UT:351SEKWQS0H1WG1CCNTKMLTGA3GMDY,4,1495139504516,"{""rt"": 48465, ""trial_type"": ""instructions"", ""view_history"": ""[{\""page_index\"":0,\""viewing_time\"":12421},{\""page_index\"":1,\""viewing_time\"":12853},{\""page_index\"":2,\""viewing_time\"":17877},{\""page_index\"":3,\""viewing_time\"":5313}]"", ""internal_node_id"": ""0.0-0.2-0.2"", ""time_elapsed"": 143639, ""trial_index"": 4}"
A1SL65Z68BK1UT:351SEKWQS0H1WG1CCNTKMLTGA3GMDY,5,1495139517112,"{""rt"": 11545, ""trial_type"": ""survey-multi-choice"", ""responses"": ""[\""3\"",\""True\"",\""$1.60\"",\""As many or as few as I wish\"",\""5% of my score on a random round\"",\""All of the above.\""]"", ""internal_node_id"": ""0.0-0.2-1.2"", ""time_elapsed"": 156235, ""questions"": ""[\""How many flights are there per round?\"",\""True or false: The hidden values will change each time I start a new round.\"",\""How much does it cost to observe each hidden value?\"",\""How many hidden values am I allowed to observe in each round?\"",\""How is your bonus determined?\"",\""What does the feedback teach you?\""]"", ""correct"": [true, true, true, true, true, true], ""trial_index"": 5}"
A1SL65Z68BK1UT:351SEKWQS0H1WG1CCNTKMLTGA3GMDY,6,1495139588569,"{""rt"": [7620, 1135, 4063], ""trial_type"": ""graph"", ""infoCost"": 1.6, ""feedback"": true, ""minTime"": 45, ""delays"": [5, 0, 0], ""actionTimes"": [7620, 20177, 26432], ""time_elapsed"": 227693, ""actions"": [""up"", ""up"", ""left""], ""trialIndex"": 1, ""score"": 16.6, ""trial_index"": 6, ""internal_node_id"": ""0.0-1.0-0.0"", ""clickTimes"": [3573, 6440, 24680, 25848], ""path"": [1, 3, 7, 12], ""trialID"": 4, ""clicks"": [""2"", ""3"", ""12"", ""13""], ""condition"": 2}"
A1SL65Z68BK1UT:351SEKWQS0H1WG1CCNTKMLTGA3GMDY,7,1495139652670,"{""rt"": [8276, 2016, 2870], ""trial_type"": ""graph"", ""infoCost"": 1.6, ""feedback"": true, ""minTime"": 45, ""delays"": [2, 0, 0], ""actionTimes"": [8276, 17324, 22387], ""time_elapsed"": 291794, ""actions"": [""down"", ""down"", ""right""], ""trialIndex"": 2, ""score"": 5.2, ""trial_index"": 7, ""internal_node_id"": ""0.0-1.0-1.0"", ""clickTimes"": [6543, 19529, 20227], ""path"": [1, 5, 9, 17], ""trialID"": 0, ""clicks"": [""5"", ""16"", ""17""], ""condition"": 2}"
A1SL65Z68BK1UT:351SEKWQS0H1WG1CCNTKMLTGA3GMDY,8,1495139727249,"{""rt"": [19391, 4, 163], ""trial_type"": ""graph"", ""infoCost"": 1.6, ""feedback"": true, ""minTime"": 45, ""delays"": [null, 0, 0], ""actionTimes"": [19392, 34495, 36446], ""time_elapsed"": 366372, ""actions"": [""up"", ""up"", ""left""], ""trialIndex"": 3, ""score"": 13, ""trial_index"": 8, ""internal_node_id"": ""0.0-1.0-2.0"", ""clickTimes"": [3864, 5358, 5978, 7037, 8322, 10343, 10962, 13872, 14591, 15052, 15665, 16424, 16802, 17144, 17568], ""path"": [1, 3, 7, 12], ""trialID"": 6, ""clicks"": [""4"", ""14"", ""15"", ""6"", ""2"", ""11"", ""10"", ""5"", ""9"", ""17"", ""16"", ""3"", ""7"", ""12"", ""13""], ""condition"": 2}"
A1SL65Z68BK1UT:351SEKWQS0H1WG1CCNTKMLTGA3GMDY,9,1495139823010,"{""rt"": [8331, 1588, 4], ""trial_type"": ""graph"", ""infoCost"": 1.6, ""feedback"": true, ""minTime"": 45, ""delays"": [28, 0, 0], ""actionTimes"": [8332, 51265, 53401], ""time_elapsed"": 462134, ""actions"": [""up"", ""up"", ""left""], ""trialIndex"": 4, ""score"": 9.8, ""trial_index"": 9, ""internal_node_id"": ""0.0-1.0-3.0"", ""clickTimes"": [1563, 2322, 2738, 3405, 4838, 5339, 5911], ""path"": [1, 3, 7, 12], ""trialID"": 1, ""clicks"": [""3"", ""5"", ""2"", ""4"", ""12"", ""13"", ""7""], ""condition"": 2}"
A1SL65Z68BK1UT:351SEKWQS0H1WG1CCNTKMLTGA3GMDY,10,1495139921410,"{""rt"": [7963, 1662, 4], ""trial_type"": ""graph"", ""infoCost"": 1.6, ""feedback"": true, ""minTime"": 45, ""delays"": [17, 0, 0], ""actionTimes"": [7964, 40365, 42415], ""time_elapsed"": 560534, ""actions"": [""right"", ""right"", ""up""], ""trialIndex"": 5, ""score"": 10.8, ""trial_index"": 10, ""internal_node_id"": ""0.0-1.0-4.0"", ""clickTimes"": [2602, 3158, 3683, 4200, 5140, 5750, 6214], ""path"": [1, 2, 6, 10], ""trialID"": 7, ""clicks"": [""3"", ""2"", ""5"", ""4"", ""6"", ""10"", ""11""], ""condition"": 2}"
A1SL65Z68BK1UT:351SEKWQS0H1WG1CCNTKMLTGA3GMDY,11,1495140068017,"{""rt"": [12402, 2219, 3], ""trial_type"": ""graph"", ""infoCost"": 1.6, ""feedback"": true, ""minTime"": 45, ""delays"": [73, 0, 0], ""actionTimes"": [12403, 104601, 106394], ""time_elapsed"": 707141, ""actions"": [""left"", ""left"", ""up""], ""trialIndex"": 6, ""score"": 13.2, ""trial_index"": 11, ""internal_node_id"": ""0.0-1.0-5.0"", ""clickTimes"": [2127, 2545, 3109, 3665, 5123, 5743, 6182, 6882, 7217, 7671, 8628, 9449, 9826], ""path"": [1, 4, 8, 14], ""trialID"": 5, ""clicks"": [""3"", ""2"", ""5"", ""4"", ""7"", ""12"", ""13"", ""8"", ""14"", ""15"", ""9"", ""17"", ""16""], ""condition"": 2}"
A1SL65Z68BK1UT:351SEKWQS0H1WG1CCNTKMLTGA3GMDY,12,1495140230718,"{""rt"": [17915, 3095, 4], ""trial_type"": ""graph"", ""infoCost"": 1.6, ""feedback"": true, ""minTime"": 45, ""delays"": [76, 0, 0], ""actionTimes"": [17915, 113988, 115560], ""time_elapsed"": 869842, ""actions"": [""right"", ""right"", ""up""], ""trialIndex"": 7, ""score"": 8.4, ""trial_index"": 12, ""internal_node_id"": ""0.0-1.0-6.0"", ""clickTimes"": [1644, 2097, 2630, 3052, 4096, 4471, 5559, 6234, 6563, 6853, 8015, 8359, 8663, 9447, 9753, 10059], ""path"": [1, 2, 6, 10], ""trialID"": 3, ""clicks"": [""4"", ""3"", ""2"", ""5"", ""9"", ""17"", ""16"", ""15"", ""8"", ""14"", ""11"", ""6"", ""10"", ""7"", ""13"", ""12""], ""condition"": 2}"
A1SL65Z68BK1UT:351SEKWQS0H1WG1CCNTKMLTGA3GMDY,13,1495140382264,"{""rt"": [9625, 92721, 4], ""trial_type"": ""graph"", ""infoCost"": 1.6, ""feedback"": true, ""minTime"": 45, ""delays"": [28, 0, 0], ""actionTimes"": [9625, 142592, 144730], ""time_elapsed"": 1021388, ""actions"": [""down"", ""down"", ""left""], ""trialIndex"": 8, ""score"": -5.6, ""trial_index"": 13, ""internal_node_id"": ""0.0-1.0-7.0"", ""clickTimes"": [3470, 3888, 4344, 5167, 6978, 7510], ""path"": [1, 5, 9, 16], ""trialID"": 2, ""clicks"": [""3"", ""2"", ""5"", ""4"", ""16"", ""17""], ""condition"": 2}"
A1SL65Z68BK1UT:351SEKWQS0H1WG1CCNTKMLTGA3GMDY,14,1495140384981,"{""rt"": 1684, ""trial_type"": ""button-response"", ""button_pressed"": 0, ""stimulus"": ""<h1 id=\""thiscompletesthehit\"">This completes the HIT</h1>\n\n<p>One or your trials has been randomly selected and we will pay you 5% of your profit on that trial as a bonus. You will be awarded a bonus of $0.42</p>"", ""internal_node_id"": ""0.0-2.0"", ""time_elapsed"": 1024105, ""trial_index"": 14}"
A1TNOYRQG5VT7D:3O7L7BFSHEPKS3PLN36C0A4KT6YEI4,0,1495138776739,"{""rt"": 131086, ""trial_type"": ""instructions"", ""view_history"": ""[{\""page_index\"":0,\""viewing_time\"":35249},{\""page_index\"":1,\""viewing_time\"":28867},{\""page_index\"":2,\""viewing_time\"":42116},{\""page_index\"":3,\""viewing_time\"":24853}]"", ""internal_node_id"": ""0.0-0.0-0.0"", ""time_elapsed"": 131087, ""trial_index"": 0}"
A1TNOYRQG5VT7D:3O7L7BFSHEPKS3PLN36C0A4KT6YEI4,1,1495138844376,"{""rt"": 62322, ""trial_type"": ""survey-multi-choice"", ""responses"": ""[\""4\"",\""True\"",\""$1.60\"",\""As many or as few as I wish\"",\""5% of my score on a random round\"",\""All of the above.\""]"", ""internal_node_id"": ""0.0-0.0-1.0"", ""time_elapsed"": 198725, ""questions"": ""[\""How many flights are there per round?\"",\""True or false: The hidden values will change each time I start a new round.\"",\""How much does it cost to observe each hidden value?\"",\""How many hidden values am I allowed to observe in each round?\"",\""How is your bonus determined?\"",\""What does the feedback teach you?\""]"", ""correct"": [false, true, true, true, true, true], ""trial_index"": 1}"
A1TNOYRQG5VT7D:3O7L7BFSHEPKS3PLN36C0A4KT6YEI4,2,1495138872506,"{""rt"": 27126, ""trial_type"": ""instructions"", ""view_history"": ""[{\""page_index\"":0,\""viewing_time\"":4776},{\""page_index\"":1,\""viewing_time\"":9247},{\""page_index\"":2,\""viewing_time\"":5750},{\""page_index\"":3,\""viewing_time\"":7352}]"", ""internal_node_id"": ""0.0-0.1-0.1"", ""time_elapsed"": 226855, ""trial_index"": 2}"
A1TNOYRQG5VT7D:3O7L7BFSHEPKS3PLN36C0A4KT6YEI4,3,1495138896053,"{""rt"": 22525, ""trial_type"": ""survey-multi-choice"", ""responses"": ""[\""3\"",\""True\"",\""$1.60\"",\""As many or as few as I wish\"",\""5% of my score on a random round\"",\""All of the above.\""]"", ""internal_node_id"": ""0.0-0.1-1.1"", ""time_elapsed"": 250402, ""questions"": ""[\""How many flights are there per round?\"",\""True or false: The hidden values will change each time I start a new round.\"",\""How much does it cost to observe each hidden value?\"",\""How many hidden values am I allowed to observe in each round?\"",\""How is your bonus determined?\"",\""What does the feedback teach you?\""]"", ""correct"": [true, true, true, true, true, true], ""trial_index"": 3}"
A1TNOYRQG5VT7D:3O7L7BFSHEPKS3PLN36C0A4KT6YEI4,4,1495139005904,"{""rt"": [39894, 19848, 11641], ""trial_type"": ""graph"", ""infoCost"": 1.6, ""feedback"": true, ""minTime"": 45, ""delays"": [26, 0, null], ""actionTimes"": [39896, 93524, 106410], ""time_elapsed"": 360253, ""actions"": [""up"", ""up"", ""right""], ""trialIndex"": 1, ""score"": 0.2, ""trial_index"": 4, ""internal_node_id"": ""0.0-1.0-0.0"", ""clickTimes"": [3978, 6802, 8421, 9201, 11894, 13890, 22902, 25717, 31117, 99581, 101284, 102724, 103547], ""path"": [1, 3, 7, 13], ""trialID"": 1, ""clicks"": [""2"", ""4"", ""5"", ""3"", ""7"", ""12"", ""13"", ""10"", ""16"", ""14"", ""11"", ""8"", ""15""], ""condition"": 2}"
A1TNOYRQG5VT7D:3O7L7BFSHEPKS3PLN36C0A4KT6YEI4,5,1495139154639,"{""rt"": [27887, 7589, 584], ""trial_type"": ""graph"", ""infoCost"": 1.6, ""feedback"": true, ""minTime"": 45, ""delays"": [90, 0, 0], ""actionTimes"": [27887, 132539, 134098], ""time_elapsed"": 508988, ""actions"": [""left"", ""left"", ""up""], ""trialIndex"": 2, ""score"": 8.4, ""trial_index"": 5, ""internal_node_id"": ""0.0-1.0-1.0"", ""clickTimes"": [3307, 4356, 5129, 6107, 8783, 10801, 11668, 12264, 13398, 14283, 17857, 18437, 18990, 23114, 23528, 24374], ""path"": [1, 4, 8, 14], ""trialID"": 5, ""clicks"": [""4"", ""17"", ""10"", ""7"", ""16"", ""13"", ""9"", ""5"", ""3"", ""12"", ""6"", ""11"", ""2"", ""8"", ""15"", ""14""], ""condition"": 2}"
A1TNOYRQG5VT7D:3O7L7BFSHEPKS3PLN36C0A4KT6YEI4,6,1495139285410,"{""rt"": [26707, 29507, 1786], ""trial_type"": ""graph"", ""infoCost"": 1.6, ""feedback"": true, ""minTime"": 45, ""delays"": [62, 0, 0], ""actionTimes"": [26709, 124090, 127008], ""time_elapsed"": 639759, ""actions"": [""left"", ""left"", ""down""], ""trialIndex"": 3, ""score"": 12, ""trial_index"": 6, ""internal_node_id"": ""0.0-1.0-2.0"", ""clickTimes"": [1675, 3214, 5185, 7384, 10949, 11551, 13017, 16057, 17442, 17959], ""path"": [1, 4, 8, 15], ""trialID"": 6, ""clicks"": [""4"", ""17"", ""13"", ""11"", ""8"", ""14"", ""15"", ""10"", ""6"", ""2""], ""condition"": 2}"
A1TNOYRQG5VT7D:3O7L7BFSHEPKS3PLN36C0A4KT6YEI4,7,1495139516899,"{""rt"": [15468, 114551, 2], ""trial_type"": ""graph"", ""infoCost"": 1.6, ""feedback"": true, ""minTime"": 45, ""delays"": [79, 0, 0], ""actionTimes"": [15468, 217254, 218451], ""time_elapsed"": 871248, ""actions"": [""right"", ""right"", ""up""], ""trialIndex"": 4, ""score"": 1.2, ""trial_index"": 7, ""internal_node_id"": ""0.0-1.0-3.0"", ""clickTimes"": [1182, 2174, 2988, 3724, 4723, 5250, 6179, 6679, 7219, 8393, 9622, 11193, 13587], ""path"": [1, 2, 6, 10], ""trialID"": 7, ""clicks"": [""10"", ""2"", ""4"", ""15"", ""17"", ""5"", ""7"", ""3"", ""13"", ""12"", ""11"", ""6"", ""8""], ""condition"": 2}"
A1TNOYRQG5VT7D:3O7L7BFSHEPKS3PLN36C0A4KT6YEI4,8,1495139851914,"{""rt"": [14357, 291534, 1], ""trial_type"": ""graph"", ""infoCost"": 1.6, ""feedback"": true, ""minTime"": 45, ""delays"": [18, 0, 0], ""actionTimes"": [14357, 330529, 331857], ""time_elapsed"": 1206263, ""actions"": [""right"", ""right"", ""up""], ""trialIndex"": 5, ""score"": 22.8, ""trial_index"": 8, ""internal_node_id"": ""0.0-1.0-4.0"", ""clickTimes"": [3291, 4051, 5136, 5990, 6411, 8463, 12438], ""path"": [1, 2, 6, 10], ""trialID"": 2, ""clicks"": [""2"", ""17"", ""3"", ""4"", ""5"", ""10"", ""14""], ""condition"": 2}"
A1TNOYRQG5VT7D:3O7L7BFSHEPKS3PLN36C0A4KT6YEI4,9,1495139992176,"{""rt"": [29568, 29825, 5], ""trial_type"": ""graph"", ""infoCost"": 1.6, ""feedback"": true, ""minTime"": 45, ""delays"": [59, 0, 7], ""actionTimes"": [29568, 125853, 127212], ""time_elapsed"": 1346525, ""actions"": [""left"", ""left"", ""down""], ""trialIndex"": 6, ""score"": 22.4, ""trial_index"": 9, ""internal_node_id"": ""0.0-1.0-5.0"", ""clickTimes"": [2425, 3104, 4410, 6735, 7847, 8510, 9512, 10357, 16718, 22909, 25794], ""path"": [1, 4, 8, 15], ""trialID"": 0, ""clicks"": [""3"", ""12"", ""4"", ""15"", ""5"", ""17"", ""2"", ""11"", ""10"", ""8"", ""13""], ""condition"": 2}"
A1TNOYRQG5VT7D:3O7L7BFSHEPKS3PLN36C0A4KT6YEI4,10,1495140167567,"{""rt"": [18186, 3023, 1], ""trial_type"": ""graph"", ""infoCost"": 1.6, ""feedback"": true, ""minTime"": 45, ""delays"": [44, 0, 0], ""actionTimes"": [18186, 72960, 74276], ""time_elapsed"": 1521916, ""actions"": [""down"", ""down"", ""right""], ""trialIndex"": 7, ""score"": 24.4, ""trial_index"": 10, ""internal_node_id"": ""0.0-1.0-6.0"", ""clickTimes"": [2565, 3221, 4020, 4694, 7087, 7854, 9753, 11296, 14675, 79917, 81654], ""path"": [1, 5, 9, 17], ""trialID"": 4, ""clicks"": [""4"", ""5"", ""2"", ""3"", ""15"", ""17"", ""10"", ""12"", ""9"", ""16"", ""11""], ""condition"": 2}"
A1TNOYRQG5VT7D:3O7L7BFSHEPKS3PLN36C0A4KT6YEI4,11,1495140417777,"{""rt"": [35795, 89374, 10], ""trial_type"": ""graph"", ""infoCost"": 1.6, ""feedback"": true, ""minTime"": 45, ""delays"": [111, 0, 0], ""actionTimes"": [35796, 243869, 245050], ""time_elapsed"": 1772125, ""actions"": [""right"", ""right"", ""up""], ""trialIndex"": 8, ""score"": 11.6, ""trial_index"": 11, ""internal_node_id"": ""0.0-1.0-7.0"", ""clickTimes"": [779, 1248, 1897, 2343, 3509, 4065, 4699, 5755, 7788, 9424, 13454, 17560, 18477, 31904], ""path"": [1, 2, 6, 10], ""trialID"": 3, ""clicks"": [""3"", ""4"", ""5"", ""2"", ""12"", ""13"", ""10"", ""17"", ""16"", ""11"", ""6"", ""15"", ""8"", ""14""], ""condition"": 2}"
A1TNOYRQG5VT7D:3O7L7BFSHEPKS3PLN36C0A4KT6YEI4,12,1495140423466,"{""rt"": 4672, ""trial_type"": ""button-response"", ""button_pressed"": 0, ""stimulus"": ""<h1 id=\""thiscompletesthehit\"">This completes the HIT</h1>\n\n<p>One or your trials has been randomly selected and we will pay you 5% of your profit on that trial as a bonus. You will be awarded a bonus of $0.42</p>"", ""internal_node_id"": ""0.0-2.0"", ""time_elapsed"": 1777815, ""trial_index"": 12}"
A23RGG9LXG380R:3R3YRB5GRF3MBH391FT4NU242MMUAW,0,1495138554074,"{""rt"": 151856, ""trial_type"": ""instructions"", ""view_history"": ""[{\""page_index\"":0,\""viewing_time\"":51643},{\""page_index\"":1,\""viewing_time\"":22100},{\""page_index\"":2,\""viewing_time\"":46269},{\""page_index\"":3,\""viewing_time\"":31844}]"", ""internal_node_id"": ""0.0-0.0-0.0"", ""time_elapsed"": 151857, ""trial_index"": 0}"
A23RGG9LXG380R:3R3YRB5GRF3MBH391FT4NU242MMUAW,1,1495138622885,"{""rt"": 63892, ""trial_type"": ""survey-multi-choice"", ""responses"": ""[\""2\"",\""False\"",\""$1.60\"",\""As many or as few as I wish\"",\""5% of my score on a random round\"",\""Whether I chose the move that was best according to the information I had.\""]"", ""internal_node_id"": ""0.0-0.0-1.0"", ""time_elapsed"": 220668, ""questions"": ""[\""How many flights are there per round?\"",\""True or false: The hidden values will change each time I start a new round.\"",\""How much does it cost to observe each hidden value?\"",\""How many hidden values am I allowed to observe in each round?\"",\""How is your bonus determined?\"",\""What does the feedback teach you?\""]"", ""correct"": [false, false, true, true, true, false], ""trial_index"": 1}"
A23RGG9LXG380R:3R3YRB5GRF3MBH391FT4NU242MMUAW,2,1495138684397,"{""rt"": 60505, ""trial_type"": ""instructions"", ""view_history"": ""[{\""page_index\"":0,\""viewing_time\"":23014},{\""page_index\"":1,\""viewing_time\"":24481},{\""page_index\"":2,\""viewing_time\"":9727},{\""page_index\"":3,\""viewing_time\"":3283}]"", ""internal_node_id"": ""0.0-0.1-0.1"", ""time_elapsed"": 282180, ""trial_index"": 2}"
A23RGG9LXG380R:3R3YRB5GRF3MBH391FT4NU242MMUAW,3,1495138714711,"{""rt"": 20891, ""trial_type"": ""survey-multi-choice"", ""responses"": ""[\""2\"",\""False\"",\""$1.60\"",\""As many or as few as I wish\"",\""5% of my score on a random round\"",\""All of the above.\""]"", ""internal_node_id"": ""0.0-0.1-1.1"", ""time_elapsed"": 312494, ""questions"": ""[\""How many flights are there per round?\"",\""True or false: The hidden values will change each time I start a new round.\"",\""How much does it cost to observe each hidden value?\"",\""How many hidden values am I allowed to observe in each round?\"",\""How is your bonus determined?\"",\""What does the feedback teach you?\""]"", ""correct"": [false, false, true, true, true, true], ""trial_index"": 3}"
A23RGG9LXG380R:3R3YRB5GRF3MBH391FT4NU242MMUAW,4,1495138745538,"{""rt"": 29812, ""trial_type"": ""instructions"", ""view_history"": ""[{\""page_index\"":0,\""viewing_time\"":2948},{\""page_index\"":1,\""viewing_time\"":1997},{\""page_index\"":0,\""viewing_time\"":13825},{\""page_index\"":1,\""viewing_time\"":1919},{\""page_index\"":2,\""viewing_time\"":6759},{\""page_index\"":3,\""viewing_time\"":2364}]"", ""internal_node_id"": ""0.0-0.2-0.2"", ""time_elapsed"": 343320, ""trial_index"": 4}"
A23RGG9LXG380R:3R3YRB5GRF3MBH391FT4NU242MMUAW,5,1495138774414,"{""rt"": 25926, ""trial_type"": ""survey-multi-choice"", ""responses"": ""[\""2\"",\""True\"",\""$1.60\"",\""As many or as few as I wish\"",\""5% of my score on a random round\"",\""All of the above.\""]"", ""internal_node_id"": ""0.0-0.2-1.2"", ""time_elapsed"": 372197, ""questions"": ""[\""How many flights are there per round?\"",\""True or false: The hidden values will change each time I start a new round.\"",\""How much does it cost to observe each hidden value?\"",\""How many hidden values am I allowed to observe in each round?\"",\""How is your bonus determined?\"",\""What does the feedback teach you?\""]"", ""correct"": [false, true, true, true, true, true], ""trial_index"": 5}"
A23RGG9LXG380R:3R3YRB5GRF3MBH391FT4NU242MMUAW,6,1495138784548,"{""rt"": 9128, ""trial_type"": ""instructions"", ""view_history"": ""[{\""page_index\"":0,\""viewing_time\"":2711},{\""page_index\"":1,\""viewing_time\"":1682},{\""page_index\"":2,\""viewing_time\"":3197},{\""page_index\"":3,\""viewing_time\"":1538}]"", ""internal_node_id"": ""0.0-0.3-0.3"", ""time_elapsed"": 382331, ""trial_index"": 6}"
A23RGG9LXG380R:3R3YRB5GRF3MBH391FT4NU242MMUAW,7,1495138808800,"{""rt"": 20622, ""trial_type"": ""survey-multi-choice"", ""responses"": ""[\""2\"",\""False\"",\""$1.60\"",\""As many or as few as I wish\"",\""5% of my score on a random round\"",\""All of the above.\""]"", ""internal_node_id"": ""0.0-0.3-1.3"", ""time_elapsed"": 406583, ""questions"": ""[\""How many flights are there per round?\"",\""True or false: The hidden values will change each time I start a new round.\"",\""How much does it cost to observe each hidden value?\"",\""How many hidden values am I allowed to observe in each round?\"",\""How is your bonus determined?\"",\""What does the feedback teach you?\""]"", ""correct"": [false, false, true, true, true, true], ""trial_index"": 7}"
A23RGG9LXG380R:3R3YRB5GRF3MBH391FT4NU242MMUAW,8,1495138838723,"{""rt"": 28921, ""trial_type"": ""instructions"", ""view_history"": ""[{\""page_index\"":0,\""viewing_time\"":2804},{\""page_index\"":1,\""viewing_time\"":1310},{\""page_index\"":2,\""viewing_time\"":3272},{\""page_index\"":3,\""viewing_time\"":2034},{\""page_index\"":2,\""viewing_time\"":16369},{\""page_index\"":3,\""viewing_time\"":3132}]"", ""internal_node_id"": ""0.0-0.4-0.4"", ""time_elapsed"": 436506, ""trial_index"": 8}"
A23RGG9LXG380R:3R3YRB5GRF3MBH391FT4NU242MMUAW,9,1495138861892,"{""rt"": 20109, ""trial_type"": ""survey-multi-choice"", ""responses"": ""[\""2\"",\""True\"",\""$1.60\"",\""As many or as few as I wish\"",\""5% of my score on a random round\"",\""Whether I observed the rewards of relevant locations.\""]"", ""internal_node_id"": ""0.0-0.4-1.4"", ""time_elapsed"": 459675, ""questions"": ""[\""How many flights are there per round?\"",\""True or false: The hidden values will change each time I start a new round.\"",\""How much does it cost to observe each hidden value?\"",\""How many hidden values am I allowed to observe in each round?\"",\""How is your bonus determined?\"",\""What does the feedback teach you?\""]"", ""correct"": [false, true, true, true, true, false], ""trial_index"": 9}"
A23RGG9LXG380R:3R3YRB5GRF3MBH391FT4NU242MMUAW,10,1495138888368,"{""rt"": 25468, ""trial_type"": ""instructions"", ""view_history"": ""[{\""page_index\"":0,\""viewing_time\"":19209},{\""page_index\"":1,\""viewing_time\"":1795},{\""page_index\"":2,\""viewing_time\"":2900},{\""page_index\"":3,\""viewing_time\"":1563}]"", ""internal_node_id"": ""0.0-0.5-0.5"", ""time_elapsed"": 486151, ""trial_index"": 10}"
A23RGG9LXG380R:3R3YRB5GRF3MBH391FT4NU242MMUAW,11,1495138916636,"{""rt"": 25331, ""trial_type"": ""survey-multi-choice"", ""responses"": ""[\""3\"",\""False\"",\""$1.60\"",\""As many or as few as I wish\"",\""5% of my score on a random round\"",\""All of the above.\""]"", ""internal_node_id"": ""0.0-0.5-1.5"", ""time_elapsed"": 514418, ""questions"": ""[\""How many flights are there per round?\"",\""True or false: The hidden values will change each time I start a new round.\"",\""How much does it cost to observe each hidden value?\"",\""How many hidden values am I allowed to observe in each round?\"",\""How is your bonus determined?\"",\""What does the feedback teach you?\""]"", ""correct"": [true, false, true, true, true, true], ""trial_index"": 11}"
A23RGG9LXG380R:3R3YRB5GRF3MBH391FT4NU242MMUAW,12,1495138926443,"{""rt"": 8807, ""trial_type"": ""instructions"", ""view_history"": ""[{\""page_index\"":0,\""viewing_time\"":2927},{\""page_index\"":1,\""viewing_time\"":1263},{\""page_index\"":2,\""viewing_time\"":3217},{\""page_index\"":3,\""viewing_time\"":1400}]"", ""internal_node_id"": ""0.0-0.6-0.6"", ""time_elapsed"": 524226, ""trial_index"": 12}"
A23RGG9LXG380R:3R3YRB5GRF3MBH391FT4NU242MMUAW,13,1495138943565,"{""rt"": 16107, ""trial_type"": ""survey-multi-choice"", ""responses"": ""[\""3\"",\""True\"",\""$1.60\"",\""As many or as few as I wish\"",\""5% of my score on a random round\"",\""All of the above.\""]"", ""internal_node_id"": ""0.0-0.6-1.6"", ""time_elapsed"": 541348, ""questions"": ""[\""How many flights are there per round?\"",\""True or false: The hidden values will change each time I start a new round.\"",\""How much does it cost to observe each hidden value?\"",\""How many hidden values am I allowed to observe in each round?\"",\""How is your bonus determined?\"",\""What does the feedback teach you?\""]"", ""correct"": [true, true, true, true, true, true], ""trial_index"": 13}"
A23RGG9LXG380R:3R3YRB5GRF3MBH391FT4NU242MMUAW,14,1495139054446,"{""rt"": [71461, 1462, 1100], ""trial_type"": ""graph"", ""infoCost"": 1.6, ""feedback"": true, ""minTime"": 45, ""delays"": [25, 0, 0], ""actionTimes"": [71461, 101385, 103425], ""time_elapsed"": 652229, ""actions"": [""right"", ""right"", ""up""], ""trialIndex"": 1, ""score"": 12.4, ""trial_index"": 14, ""internal_node_id"": ""0.0-1.0-0.0"", ""clickTimes"": [14081, 16634, 21354, 53443, 60777, 65655], ""path"": [1, 2, 6, 10], ""trialID"": 7, ""clicks"": [""2"", ""6"", ""11"", ""3"", ""9"", ""8""], ""condition"": 2}"
A23RGG9LXG380R:3R3YRB5GRF3MBH391FT4NU242MMUAW,15,1495139117607,"{""rt"": [11329, 1390, 1225], ""trial_type"": ""graph"", ""infoCost"": 1.6, ""feedback"": true, ""minTime"": 45, ""delays"": [13, 0, 0], ""actionTimes"": [11329, 27742, 29920], ""time_elapsed"": 715390, ""actions"": [""up"", ""up"", ""right""], ""trialIndex"": 2, ""score"": 1.8, ""trial_index"": 15, ""internal_node_id"": ""0.0-1.0-1.0"", ""clickTimes"": [3265, 6682], ""path"": [1, 3, 7, 13], ""trialID"": 3, ""clicks"": [""3"", ""12""], ""condition"": 2}"
A23RGG9LXG380R:3R3YRB5GRF3MBH391FT4NU242MMUAW,16,1495139199420,"{""rt"": [20050, 1474, 536], ""trial_type"": ""graph"", ""infoCost"": 1.6, ""feedback"": true, ""minTime"": 45, ""delays"": [25, 0, 0], ""actionTimes"": [20050, 49305, 50793], ""time_elapsed"": 797203, ""actions"": [""right"", ""right"", ""up""], ""trialIndex"": 3, ""score"": 8, ""trial_index"": 16, ""internal_node_id"": ""0.0-1.0-2.0"", ""clickTimes"": [2205, 5339, 7752, 11654, 16790], ""path"": [1, 2, 6, 10], ""trialID"": 6, ""clicks"": [""4"", ""15"", ""14"", ""6"", ""5""], ""condition"": 2}"
A23RGG9LXG380R:3R3YRB5GRF3MBH391FT4NU242MMUAW,17,1495139268055,"{""rt"": [13258, 1728, 5337], ""trial_type"": ""graph"", ""infoCost"": 1.6, ""feedback"": true, ""minTime"": 45, ""delays"": [17, 0, 0], ""actionTimes"": [13258, 35949, 42273], ""time_elapsed"": 865838, ""actions"": [""right"", ""right"", ""down""], ""trialIndex"": 4, ""score"": -10, ""trial_index"": 17, ""internal_node_id"": ""0.0-1.0-3.0"", ""clickTimes"": [1700, 3489, 5149, 6857, 7813, 8862, 9891, 10662, 39212, 40693], ""path"": [1, 2, 6, 11], ""trialID"": 5, ""clicks"": [""3"", ""12"", ""7"", ""5"", ""9"", ""2"", ""6"", ""4"", ""10"", ""11""], ""condition"": 2}"
A23RGG9LXG380R:3R3YRB5GRF3MBH391FT4NU242MMUAW,18,1495139348126,"{""rt"": [12211, 1920, 428], ""trial_type"": ""graph"", ""infoCost"": 1.6, ""feedback"": true, ""minTime"": 45, ""delays"": [27, 0, 0], ""actionTimes"": [12211, 44579, 45990], ""time_elapsed"": 945909, ""actions"": [""left"", ""left"", ""up""], ""trialIndex"": 5, ""score"": 30.4, ""trial_index"": 18, ""internal_node_id"": ""0.0-1.0-4.0"", ""clickTimes"": [1232, 3361, 4617, 6016, 7866, 9501], ""path"": [1, 4, 8, 14], ""trialID"": 0, ""clicks"": [""2"", ""3"", ""12"", ""8"", ""14"", ""4""], ""condition"": 2}"
A23RGG9LXG380R:3R3YRB5GRF3MBH391FT4NU242MMUAW,19,1495139458613,"{""rt"": [18449, 2875, 516], ""trial_type"": ""graph"", ""infoCost"": 1.6, ""feedback"": true, ""minTime"": 45, ""delays"": [45, 0, 0], ""actionTimes"": [18449, 70516, 71888], ""time_elapsed"": 1056396, ""actions"": [""down"", ""down"", ""right""], ""trialIndex"": 6, ""score"": 26, ""trial_index"": 19, ""internal_node_id"": ""0.0-1.0-5.0"", ""clickTimes"": [3337, 4426, 5517, 6873, 8307, 10104, 11122, 12786, 13494, 14875], ""path"": [1, 5, 9, 17], ""trialID"": 4, ""clicks"": [""6"", ""3"", ""8"", ""5"", ""4"", ""14"", ""15"", ""9"", ""16"", ""17""], ""condition"": 2}"
A23RGG9LXG380R:3R3YRB5GRF3MBH391FT4NU242MMUAW,20,1495139514090,"{""rt"": [6279, 876, 1497], ""trial_type"": ""graph"", ""infoCost"": 1.6, ""feedback"": true, ""minTime"": 45, ""delays"": [4, 0, 0], ""actionTimes"": [6279, 13611, 16075], ""time_elapsed"": 1111873, ""actions"": [""right"", ""right"", ""up""], ""trialIndex"": 7, ""score"": 29.2, ""trial_index"": 20, ""internal_node_id"": ""0.0-1.0-6.0"", ""clickTimes"": [2077, 3372, 4680], ""path"": [1, 2, 6, 10], ""trialID"": 2, ""clicks"": [""6"", ""2"", ""10""], ""condition"": 2}"
A23RGG9LXG380R:3R3YRB5GRF3MBH391FT4NU242MMUAW,21,1495139621314,"{""rt"": [15963, 3207, 2], ""trial_type"": ""graph"", ""infoCost"": 1.6, ""feedback"": true, ""minTime"": 45, ""delays"": [57, 0, 0], ""actionTimes"": [15963, 80113, 81038], ""time_elapsed"": 1219097, ""actions"": [""down"", ""down"", ""left""], ""trialIndex"": 8, ""score"": 30, ""trial_index"": 21, ""internal_node_id"": ""0.0-1.0-7.0"", ""clickTimes"": [2456, 3788, 5809, 7308, 8123, 9130, 10513, 11458, 12763, 13719], ""path"": [1, 5, 9, 16], ""trialID"": 1, ""clicks"": [""3"", ""12"", ""13"", ""8"", ""4"", ""14"", ""9"", ""5"", ""17"", ""16""], ""condition"": 2}"
A23RGG9LXG380R:3R3YRB5GRF3MBH391FT4NU242MMUAW,22,1495139634668,"{""rt"": 12342, ""trial_type"": ""button-response"", ""button_pressed"": 0, ""stimulus"": ""<h1 id=\""thiscompletesthehit\"">This completes the HIT</h1>\n\n<p>One or your trials has been randomly selected and we will pay you 5% of your profit on that trial as a bonus. You will be awarded a bonus of $0.00</p>"", ""internal_node_id"": ""0.0-2.0"", ""time_elapsed"": 1232450, ""trial_index"": 22}"
A29ZV4XJB7R1O:3QL2OFSM96IX96GYOSD9FU0YUTFCNP,0,1495138924982,"{""rt"": 6573, ""trial_type"": ""instructions"", ""view_history"": ""[{\""page_index\"":0,\""viewing_time\"":2519},{\""page_index\"":1,\""viewing_time\"":1280},{\""page_index\"":2,\""viewing_time\"":1744},{\""page_index\"":3,\""viewing_time\"":1028}]"", ""internal_node_id"": ""0.0-0.0-0.0"", ""time_elapsed"": 6576, ""trial_index"": 0}"
A29ZV4XJB7R1O:3QL2OFSM96IX96GYOSD9FU0YUTFCNP,1,1495138946884,"{""rt"": 17660, ""trial_type"": ""survey-multi-choice"", ""responses"": ""[\""3\"",\""True\"",\""$1.60\"",\""As many or as few as I wish\"",\""5% of my best score on any round\"",\""All of the above.\""]"", ""internal_node_id"": ""0.0-0.0-1.0"", ""time_elapsed"": 28479, ""questions"": ""[\""How many flights are there per round?\"",\""True or false: The hidden values will change each time I start a new round.\"",\""How much does it cost to observe each hidden value?\"",\""How many hidden values am I allowed to observe in each round?\"",\""How is your bonus determined?\"",\""What does the feedback teach you?\""]"", ""correct"": [true, true, true, true, false, true], ""trial_index"": 1}"
A29ZV4XJB7R1O:3QL2OFSM96IX96GYOSD9FU0YUTFCNP,2,1495138965155,"{""rt"": 17263, ""trial_type"": ""instructions"", ""view_history"": ""[{\""page_index\"":0,\""viewing_time\"":2554},{\""page_index\"":1,\""viewing_time\"":1364},{\""page_index\"":2,\""viewing_time\"":9904},{\""page_index\"":3,\""viewing_time\"":3440}]"", ""internal_node_id"": ""0.0-0.1-0.1"", ""time_elapsed"": 46750, ""trial_index"": 2}"
A29ZV4XJB7R1O:3QL2OFSM96IX96GYOSD9FU0YUTFCNP,3,1495139004551,"{""rt"": 37018, ""trial_type"": ""survey-multi-choice"", ""responses"": ""[\""3\"",\""True\"",\""$1.60\"",\""As many or as few as I wish\"",\""5% of my best score on any round\"",\""Whether I chose the move that was best according to the information I had.\""]"", ""internal_node_id"": ""0.0-0.1-1.1"", ""time_elapsed"": 86145, ""questions"": ""[\""How many flights are there per round?\"",\""True or false: The hidden values will change each time I start a new round.\"",\""How much does it cost to observe each hidden value?\"",\""How many hidden values am I allowed to observe in each round?\"",\""How is your bonus determined?\"",\""What does the feedback teach you?\""]"", ""correct"": [true, true, true, true, false, false], ""trial_index"": 3}"
A29ZV4XJB7R1O:3QL2OFSM96IX96GYOSD9FU0YUTFCNP,4,1495139174236,"{""rt"": 168669, ""trial_type"": ""instructions"", ""view_history"": ""[{\""page_index\"":0,\""viewing_time\"":156971},{\""page_index\"":1,\""viewing_time\"":1718},{\""page_index\"":2,\""viewing_time\"":5899},{\""page_index\"":3,\""viewing_time\"":4080}]"", ""internal_node_id"": ""0.0-0.2-0.2"", ""time_elapsed"": 255830, ""trial_index"": 4}"
A29ZV4XJB7R1O:3QL2OFSM96IX96GYOSD9FU0YUTFCNP,5,1495139220568,"{""rt"": 42329, ""trial_type"": ""survey-multi-choice"", ""responses"": ""[\""3\"",\""True\"",\""$1.60\"",\""As many or as few as I wish\"",\""5% of my score on a random round\"",\""The length of the delay is based on how much more money I could have earned by planning and deciding better.\""]"", ""internal_node_id"": ""0.0-0.2-1.2"", ""time_elapsed"": 302162, ""questions"": ""[\""How many flights are there per round?\"",\""True or false: The hidden values will change each time I start a new round.\"",\""How much does it cost to observe each hidden value?\"",\""How many hidden values am I allowed to observe in each round?\"",\""How is your bonus determined?\"",\""What does the feedback teach you?\""]"", ""correct"": [true, true, true, true, true, false], ""trial_index"": 5}"
A29ZV4XJB7R1O:3QL2OFSM96IX96GYOSD9FU0YUTFCNP,6,1495139253327,"{""rt"": 31758, ""trial_type"": ""instructions"", ""view_history"": ""[{\""page_index\"":0,\""viewing_time\"":4125},{\""page_index\"":1,\""viewing_time\"":9499},{\""page_index\"":2,\""viewing_time\"":8737},{\""page_index\"":3,\""viewing_time\"":9396}]"", ""internal_node_id"": ""0.0-0.3-0.3"", ""time_elapsed"": 334922, ""trial_index"": 6}"
A29ZV4XJB7R1O:3QL2OFSM96IX96GYOSD9FU0YUTFCNP,7,1495139283428,"{""rt"": 25785, ""trial_type"": ""survey-multi-choice"", ""responses"": ""[\""3\"",\""True\"",\""$1.60\"",\""At most 1\"",\""5% of my score on a random round\"",\""All of the above.\""]"", ""internal_node_id"": ""0.0-0.3-1.3"", ""time_elapsed"": 365023, ""questions"": ""[\""How many flights are there per round?\"",\""True or false: The hidden values will change each time I start a new round.\"",\""How much does it cost to observe each hidden value?\"",\""How many hidden values am I allowed to observe in each round?\"",\""How is your bonus determined?\"",\""What does the feedback teach you?\""]"", ""correct"": [true, true, true, false, true, true], ""trial_index"": 7}"
A29ZV4XJB7R1O:3QL2OFSM96IX96GYOSD9FU0YUTFCNP,8,1495139364944,"{""rt"": 80514, ""trial_type"": ""instructions"", ""view_history"": ""[{\""page_index\"":0,\""viewing_time\"":29829},{\""page_index\"":1,\""viewing_time\"":11775},{\""page_index\"":2,\""viewing_time\"":36905},{\""page_index\"":3,\""viewing_time\"":2004}]"", ""internal_node_id"": ""0.0-0.4-0.4"", ""time_elapsed"": 446538, ""trial_index"": 8}"
A29ZV4XJB7R1O:3QL2OFSM96IX96GYOSD9FU0YUTFCNP,9,1495139388919,"{""rt"": 22942, ""trial_type"": ""survey-multi-choice"", ""responses"": ""[\""3\"",\""True\"",\""$1.60\"",\""As many or as few as I wish\"",\""5% of my score on a random round\"",\""All of the above.\""]"", ""internal_node_id"": ""0.0-0.4-1.4"", ""time_elapsed"": 470513, ""questions"": ""[\""How many flights are there per round?\"",\""True or false: The hidden values will change each time I start a new round.\"",\""How much does it cost to observe each hidden value?\"",\""How many hidden values am I allowed to observe in each round?\"",\""How is your bonus determined?\"",\""What does the feedback teach you?\""]"", ""correct"": [true, true, true, true, true, true], ""trial_index"": 9}"
A29ZV4XJB7R1O:3QL2OFSM96IX96GYOSD9FU0YUTFCNP,10,1495139545108,"{""rt"": [14637, 7853, 3], ""trial_type"": ""graph"", ""infoCost"": 1.6, ""feedback"": true, ""minTime"": 45, ""delays"": [64, 0, 0], ""actionTimes"": [14638, 109680, 112092], ""time_elapsed"": 626703, ""actions"": [""down"", ""down"", ""right""], ""trialIndex"": 1, ""score"": 22.8, ""trial_index"": 10, ""internal_node_id"": ""0.0-1.0-0.0"", ""clickTimes"": [1599, 2522, 3067, 4089, 4781, 5437, 6878, 8321, 9244, 9895, 10609, 11805], ""path"": [1, 5, 9, 17], ""trialID"": 4, ""clicks"": [""4"", ""3"", ""2"", ""8"", ""14"", ""15"", ""6"", ""7"", ""9"", ""5"", ""17"", ""16""], ""condition"": 1}"
A29ZV4XJB7R1O:3QL2OFSM96IX96GYOSD9FU0YUTFCNP,11,1495139669746,"{""rt"": [11016, 3042, 5], ""trial_type"": ""graph"", ""infoCost"": 1.6, ""feedback"": true, ""minTime"": 45, ""delays"": [null, 0, 0], ""actionTimes"": [11017, 36900, 39385], ""time_elapsed"": 751341, ""actions"": [""left"", ""left"", ""up""], ""trialIndex"": 2, ""score"": 20.8, ""trial_index"": 11, ""internal_node_id"": ""0.0-1.0-1.0"", ""clickTimes"": [830, 1264, 1891, 2256, 3410, 3970, 4826, 5874, 6340, 6821, 7905, 8528], ""path"": [1, 4, 8, 14], ""trialID"": 0, ""clicks"": [""3"", ""4"", ""5"", ""2"", ""9"", ""16"", ""17"", ""7"", ""12"", ""13"", ""8"", ""14""], ""condition"": 1}"
A29ZV4XJB7R1O:3QL2OFSM96IX96GYOSD9FU0YUTFCNP,12,1495139740069,"{""rt"": [18380, 9636, 2], ""trial_type"": ""graph"", ""infoCost"": 1.6, ""feedback"": true, ""minTime"": 45, ""delays"": [null, 0, 0], ""actionTimes"": [18381, 51078, 52842], ""time_elapsed"": 821664, ""actions"": [""right"", ""right"", ""up""], ""trialIndex"": 3, ""score"": 8.4, ""trial_index"": 12, ""internal_node_id"": ""0.0-1.0-2.0"", ""clickTimes"": [1462, 1960, 2436, 3407, 4241, 5047, 5595, 6727, 7381, 8050, 9011, 9585, 10691, 12961, 13852, 14444], ""path"": [1, 2, 6, 10], ""trialID"": 3, ""clicks"": [""4"", ""3"", ""2"", ""5"", ""9"", ""16"", ""17"", ""7"", ""12"", ""13"", ""6"", ""10"", ""11"", ""8"", ""14"", ""15""], ""condition"": 1}"
A29ZV4XJB7R1O:3QL2OFSM96IX96GYOSD9FU0YUTFCNP,13,1495139858474,"{""rt"": [9474, 27803, 5], ""trial_type"": ""graph"", ""infoCost"": 1.6, ""feedback"": true, ""minTime"": 45, ""delays"": [42, 0, 0], ""actionTimes"": [9474, 100606, 103253], ""time_elapsed"": 940068, ""actions"": [""right"", ""right"", ""up""], ""trialIndex"": 4, ""score"": 18, ""trial_index"": 13, ""internal_node_id"": ""0.0-1.0-3.0"", ""clickTimes"": [990, 1476, 2407, 3022, 3671, 4234, 4882, 5789, 6618, 7665], ""path"": [1, 2, 6, 10], ""trialID"": 2, ""clicks"": [""4"", ""2"", ""3"", ""5"", ""9"", ""16"", ""17"", ""6"", ""10"", ""11""], ""condition"": 1}"
A29ZV4XJB7R1O:3QL2OFSM96IX96GYOSD9FU0YUTFCNP,14,1495139936435,"{""rt"": [13586, 2256, 2], ""trial_type"": ""graph"", ""infoCost"": 1.6, ""feedback"": true, ""minTime"": 45, ""delays"": [null, 0, 0], ""actionTimes"": [13586, 34083, 36520], ""time_elapsed"": 1018030, ""actions"": [""up"", ""up"", ""left""], ""trialIndex"": 5, ""score"": 21, ""trial_index"": 14, ""internal_node_id"": ""0.0-1.0-4.0"", ""clickTimes"": [1782, 2423, 3574, 4296, 4904, 7462, 8989, 9831, 11323, 74920], ""path"": [1, 3, 7, 12], ""trialID"": 6, ""clicks"": [""2"", ""4"", ""8"", ""14"", ""15"", ""3"", ""7"", ""12"", ""13"", ""5""], ""condition"": 1}"
A29ZV4XJB7R1O:3QL2OFSM96IX96GYOSD9FU0YUTFCNP,15,1495140042309,"{""rt"": [9071, 10864, 10], ""trial_type"": ""graph"", ""infoCost"": 1.6, ""feedback"": true, ""minTime"": 45, ""delays"": [29, 0, 0], ""actionTimes"": [9072, 69506, 74144], ""time_elapsed"": 1123904, ""actions"": [""left"", ""left"", ""up""], ""trialIndex"": 6, ""score"": 22.8, ""trial_index"": 15, ""internal_node_id"": ""0.0-1.0-5.0"", ""clickTimes"": [1587, 2149, 2730, 4054, 5289, 6320, 7334], ""path"": [1, 4, 8, 14], ""trialID"": 5, ""clicks"": [""4"", ""3"", ""2"", ""7"", ""8"", ""14"", ""15""], ""condition"": 1}"
