A105Q9KX0PVR4N:3KGTPGBS6XLX6E85O00PHCJ6QX42U5,0,1495057598873,"{""rt"": 246850, ""trial_type"": ""instructions"", ""view_history"": ""[{\""page_index\"":0,\""viewing_time\"":91779},{\""page_index\"":1,\""viewing_time\"":48297},{\""page_index\"":2,\""viewing_time\"":64146},{\""page_index\"":3,\""viewing_time\"":42624}]"", ""internal_node_id"": ""0.0-0.0-0.0"", ""time_elapsed"": 246855, ""trial_index"": 0}"
A105Q9KX0PVR4N:3KGTPGBS6XLX6E85O00PHCJ6QX42U5,1,1495057678335,"{""rt"": 73154, ""trial_type"": ""survey-multi-choice"", ""responses"": ""[\""1\"",\""False\"",\""$2.80\"",\""At most 1\"",\""10% of my best score on any round\"",\""All of the above.\""]"", ""internal_node_id"": ""0.0-0.0-1.0"", ""time_elapsed"": 326318, ""questions"": ""[\""How many flights are there per round?\"",\""True or false: The hidden values will change each time I start a new round.\"",\""How much does it cost to observe each hidden value?\"",\""How many hidden values am I allowed to observe in each round?\"",\""How is your bonus determined?\"",\""What does the feedback teach you?\""]"", ""correct"": [false, false, true, false, false, true], ""trial_index"": 1}"
A105Q9KX0PVR4N:3KGTPGBS6XLX6E85O00PHCJ6QX42U5,2,1495057758452,"{""rt"": 79113, ""trial_type"": ""instructions"", ""view_history"": ""[{\""page_index\"":0,\""viewing_time\"":18111},{\""page_index\"":1,\""viewing_time\"":32020},{\""page_index\"":2,\""viewing_time\"":18867},{\""page_index\"":3,\""viewing_time\"":10110}]"", ""internal_node_id"": ""0.0-0.1-0.1"", ""time_elapsed"": 406437, ""trial_index"": 2}"
A105Q9KX0PVR4N:3KGTPGBS6XLX6E85O00PHCJ6QX42U5,3,1495057794474,"{""rt"": 28329, ""trial_type"": ""survey-multi-choice"", ""responses"": ""[\""1\"",\""False\"",\""$2.80\"",\""As many or as few as I wish\"",\""5% of my score on a random round\"",\""All of the above.\""]"", ""internal_node_id"": ""0.0-0.1-1.1"", ""time_elapsed"": 442459, ""questions"": ""[\""How many flights are there per round?\"",\""True or false: The hidden values will change each time I start a new round.\"",\""How much does it cost to observe each hidden value?\"",\""How many hidden values am I allowed to observe in each round?\"",\""How is your bonus determined?\"",\""What does the feedback teach you?\""]"", ""correct"": [false, false, true, true, true, true], ""trial_index"": 3}"
A105Q9KX0PVR4N:3KGTPGBS6XLX6E85O00PHCJ6QX42U5,4,1495057830595,"{""rt"": 35118, ""trial_type"": ""instructions"", ""view_history"": ""[{\""page_index\"":0,\""viewing_time\"":28767},{\""page_index\"":1,\""viewing_time\"":1433},{\""page_index\"":2,\""viewing_time\"":3408},{\""page_index\"":3,\""viewing_time\"":1507}]"", ""internal_node_id"": ""0.0-0.2-0.2"", ""time_elapsed"": 478579, ""trial_index"": 4}"
A105Q9KX0PVR4N:3KGTPGBS6XLX6E85O00PHCJ6QX42U5,5,1495057849323,"{""rt"": 16170, ""trial_type"": ""survey-multi-choice"", ""responses"": ""[\""3\"",\""False\"",\""$2.80\"",\""As many or as few as I wish\"",\""5% of my score on a random round\"",\""All of the above.\""]"", ""internal_node_id"": ""0.0-0.2-1.2"", ""time_elapsed"": 497307, ""questions"": ""[\""How many flights are there per round?\"",\""True or false: The hidden values will change each time I start a new round.\"",\""How much does it cost to observe each hidden value?\"",\""How many hidden values am I allowed to observe in each round?\"",\""How is your bonus determined?\"",\""What does the feedback teach you?\""]"", ""correct"": [true, false, true, true, true, true], ""trial_index"": 5}"
A105Q9KX0PVR4N:3KGTPGBS6XLX6E85O00PHCJ6QX42U5,6,1495057904735,"{""rt"": 54407, ""trial_type"": ""instructions"", ""view_history"": ""[{\""page_index\"":0,\""viewing_time\"":5570},{\""page_index\"":1,\""viewing_time\"":41582},{\""page_index\"":2,\""viewing_time\"":5454},{\""page_index\"":3,\""viewing_time\"":1799}]"", ""internal_node_id"": ""0.0-0.3-0.3"", ""time_elapsed"": 552718, ""trial_index"": 6}"
A105Q9KX0PVR4N:3KGTPGBS6XLX6E85O00PHCJ6QX42U5,7,1495057921375,"{""rt"": 15555, ""trial_type"": ""survey-multi-choice"", ""responses"": ""[\""3\"",\""True\"",\""$2.80\"",\""As many or as few as I wish\"",\""5% of my score on a random round\"",\""All of the above.\""]"", ""internal_node_id"": ""0.0-0.3-1.3"", ""time_elapsed"": 569359, ""questions"": ""[\""How many flights are there per round?\"",\""True or false: The hidden values will change each time I start a new round.\"",\""How much does it cost to observe each hidden value?\"",\""How many hidden values am I allowed to observe in each round?\"",\""How is your bonus determined?\"",\""What does the feedback teach you?\""]"", ""correct"": [true, true, true, true, true, true], ""trial_index"": 7}"
A105Q9KX0PVR4N:3KGTPGBS6XLX6E85O00PHCJ6QX42U5,8,1495057983603,"{""rt"": [20232, 8, 5], ""trial_type"": ""graph"", ""infoCost"": 2.8, ""feedback"": true, ""minTime"": 45, ""delays"": [-22, -1, -1], ""actionTimes"": [20234, 26526, 30484], ""time_elapsed"": 631587, ""actions"": [""left"", ""left"", ""down""], ""trialIndex"": 1, ""score"": 8.4, ""trial_index"": 8, ""internal_node_id"": ""0.0-1.0-0.0"", ""clickTimes"": [6306, 19273], ""path"": [1, 4, 8, 15], ""trialID"": 1, ""clicks"": [""2"", ""4""], ""condition"": 8}"
A105Q9KX0PVR4N:3KGTPGBS6XLX6E85O00PHCJ6QX42U5,9,1495058076812,"{""rt"": [12498, 2433, 7], ""trial_type"": ""graph"", ""infoCost"": 2.8, ""feedback"": true, ""minTime"": 45, ""delays"": [26, -1, -1], ""actionTimes"": [12500, 47113, 51061], ""time_elapsed"": 724795, ""actions"": [""down"", ""down"", ""left""], ""trialIndex"": 2, ""score"": -3.6, ""trial_index"": 9, ""internal_node_id"": ""0.0-1.0-1.0"", ""clickTimes"": [9394, 11456], ""path"": [1, 5, 9, 16], ""trialID"": 6, ""clicks"": [""3"", ""5""], ""condition"": 8}"
A105Q9KX0PVR4N:3KGTPGBS6XLX6E85O00PHCJ6QX42U5,10,1495058161813,"{""rt"": [5270, 3364, 5], ""trial_type"": ""graph"", ""infoCost"": 2.8, ""feedback"": true, ""minTime"": 45, ""delays"": [12, -1, -1], ""actionTimes"": [5270, 26731, 30809], ""time_elapsed"": 809797, ""actions"": [""up"", ""up"", ""left""], ""trialIndex"": 3, ""score"": -5.4, ""trial_index"": 10, ""internal_node_id"": ""0.0-1.0-2.0"", ""clickTimes"": [2169, 3808, 49276], ""path"": [1, 3, 7, 12], ""trialID"": 7, ""clicks"": [""5"", ""3"", ""7""], ""condition"": 8}"
A105Q9KX0PVR4N:3KGTPGBS6XLX6E85O00PHCJ6QX42U5,11,1495058251780,"{""rt"": [9937, 1839, 5], ""trial_type"": ""graph"", ""infoCost"": 2.8, ""feedback"": true, ""minTime"": 45, ""delays"": [27, -3, -25], ""actionTimes"": [9937, 45373, 49538], ""time_elapsed"": 899764, ""actions"": [""right"", ""right"", ""up""], ""trialIndex"": 4, ""score"": 13.6, ""trial_index"": 11, ""internal_node_id"": ""0.0-1.0-3.0"", ""clickTimes"": [1289, 2751, 5389], ""path"": [1, 2, 6, 10], ""trialID"": 4, ""clicks"": [""2"", ""10"", ""6""], ""condition"": 8}"
A105Q9KX0PVR4N:3KGTPGBS6XLX6E85O00PHCJ6QX42U5,12,1495058340656,"{""rt"": [24536, 1859, 4], ""trial_type"": ""graph"", ""infoCost"": 2.8, ""feedback"": true, ""minTime"": 45, ""delays"": [25, -1, -29], ""actionTimes"": [24537, 58632, 62969], ""time_elapsed"": 988641, ""actions"": [""right"", ""right"", ""up""], ""trialIndex"": 5, ""score"": 20, ""trial_index"": 12, ""internal_node_id"": ""0.0-1.0-4.0"", ""clickTimes"": [2273, 4501, 7708, 10888, 19991], ""path"": [1, 2, 6, 10], ""trialID"": 2, ""clicks"": [""4"", ""15"", ""14"", ""10"", ""2""], ""condition"": 8}"
A105Q9KX0PVR4N:3KGTPGBS6XLX6E85O00PHCJ6QX42U5,13,1495058406987,"{""rt"": [11466, 429, 2571], ""trial_type"": ""graph"", ""infoCost"": 2.8, ""feedback"": true, ""minTime"": 45, ""delays"": [7, -1, -1], ""actionTimes"": [11467, 24501, 30777], ""time_elapsed"": 1054972, ""actions"": [""up"", ""up"", ""right""], ""trialIndex"": 6, ""score"": -3.4, ""trial_index"": 13, ""internal_node_id"": ""0.0-1.0-5.0"", ""clickTimes"": [1983, 4310, 5474], ""path"": [1, 3, 7, 13], ""trialID"": 3, ""clicks"": [""3"", ""12"", ""13""], ""condition"": 8}"
A105Q9KX0PVR4N:3KGTPGBS6XLX6E85O00PHCJ6QX42U5,14,1495058471850,"{""rt"": [7866, 9, 4], ""trial_type"": ""graph"", ""infoCost"": 2.8, ""feedback"": true, ""minTime"": 45, ""delays"": [-7, -1, -27], ""actionTimes"": [7867, 14948, 19073], ""time_elapsed"": 1119834, ""actions"": [""left"", ""left"", ""up""], ""trialIndex"": 7, ""score"": 28.4, ""trial_index"": 14, ""internal_node_id"": ""0.0-1.0-6.0"", ""clickTimes"": [2272, 6638], ""path"": [1, 4, 8, 14], ""trialID"": 5, ""clicks"": [""4"", ""14""], ""condition"": 8}"
A105Q9KX0PVR4N:3KGTPGBS6XLX6E85O00PHCJ6QX42U5,15,1495058532987,"{""rt"": [13520, 23, 418], ""trial_type"": ""graph"", ""infoCost"": 2.8, ""feedback"": true, ""minTime"": 45, ""delays"": [-9, -1, 0], ""actionTimes"": [13521, 18969, 23943], ""time_elapsed"": 1180971, ""actions"": [""up"", ""up"", ""right""], ""trialIndex"": 8, ""score"": 1, ""trial_index"": 15, ""internal_node_id"": ""0.0-1.0-7.0"", ""clickTimes"": [2389, 4142, 5955, 7097, 9079], ""path"": [1, 3, 7, 13], ""trialID"": 0, ""clicks"": [""2"", ""3"", ""12"", ""13"", ""7""], ""condition"": 8}"
A105Q9KX0PVR4N:3KGTPGBS6XLX6E85O00PHCJ6QX42U5,16,1495058544183,"{""rt"": 10134, ""trial_type"": ""button-response"", ""button_pressed"": 0, ""stimulus"": ""<h1 id=\""thiscompletesthehit\"">This completes the HIT</h1>\n\n<p>One or your trials has been randomly selected and we will pay you 5% of your profit on that trial as a bonus. You will be awarded a bonus of $1.42</p>"", ""internal_node_id"": ""0.0-2.0"", ""time_elapsed"": 1192166, ""trial_index"": 16}"
A10XW6SNPNQX16:3TYCR1GOTCJKTZON4TH2D0XUYF8ZLE,0,1495053594705,"{""rt"": 62500, ""trial_type"": ""instructions"", ""view_history"": ""[{\""page_index\"":0,\""viewing_time\"":20133},{\""page_index\"":1,\""viewing_time\"":17639},{\""page_index\"":2,\""viewing_time\"":13248},{\""page_index\"":3,\""viewing_time\"":11479}]"", ""internal_node_id"": ""0.0-0.0-0.0"", ""time_elapsed"": 62501, ""trial_index"": 0}"
A10XW6SNPNQX16:3TYCR1GOTCJKTZON4TH2D0XUYF8ZLE,1,1495053630619,"{""rt"": 32477, ""trial_type"": ""survey-multi-choice"", ""responses"": ""[\""1\"",\""True\"",\""$1.60\"",\""As many or as few as I wish\"",\""5% of my score on a random round\"",\""All of the above.\""]"", ""internal_node_id"": ""0.0-0.0-1.0"", ""time_elapsed"": 98415, ""questions"": ""[\""How many flights are there per round?\"",\""True or false: The hidden values will change each time I start a new round.\"",\""How much does it cost to observe each hidden value?\"",\""How many hidden values am I allowed to observe in each round?\"",\""How is your bonus determined?\"",\""What does the feedback teach you?\""]"", ""correct"": [false, true, true, true, true, true], ""trial_index"": 1}"
A10XW6SNPNQX16:3TYCR1GOTCJKTZON4TH2D0XUYF8ZLE,2,1495053691502,"{""rt"": 59878, ""trial_type"": ""instructions"", ""view_history"": ""[{\""page_index\"":0,\""viewing_time\"":9630},{\""page_index\"":1,\""viewing_time\"":7634},{\""page_index\"":2,\""viewing_time\"":10926},{\""page_index\"":3,\""viewing_time\"":8888},{\""page_index\"":2,\""viewing_time\"":8460},{\""page_index\"":1,\""viewing_time\"":5077},{\""page_index\"":0,\""viewing_time\"":5304},{\""page_index\"":1,\""viewing_time\"":1312},{\""page_index\"":2,\""viewing_time\"":1632},{\""page_index\"":3,\""viewing_time\"":1014}]"", ""internal_node_id"": ""0.0-0.1-0.1"", ""time_elapsed"": 159299, ""trial_index"": 2}"
A10XW6SNPNQX16:3TYCR1GOTCJKTZON4TH2D0XUYF8ZLE,3,1495053704364,"{""rt"": 10365, ""trial_type"": ""survey-multi-choice"", ""responses"": ""[\""2\"",\""True\"",\""$1.60\"",\""As many or as few as I wish\"",\""5% of my score on a random round\"",\""All of the above.\""]"", ""internal_node_id"": ""0.0-0.1-1.1"", ""time_elapsed"": 172161, ""questions"": ""[\""How many flights are there per round?\"",\""True or false: The hidden values will change each time I start a new round.\"",\""How much does it cost to observe each hidden value?\"",\""How many hidden values am I allowed to observe in each round?\"",\""How is your bonus determined?\"",\""What does the feedback teach you?\""]"", ""correct"": [false, true, true, true, true, true], ""trial_index"": 3}"
A10XW6SNPNQX16:3TYCR1GOTCJKTZON4TH2D0XUYF8ZLE,4,1495053710678,"{""rt"": 5310, ""trial_type"": ""instructions"", ""view_history"": ""[{\""page_index\"":0,\""viewing_time\"":1571},{\""page_index\"":1,\""viewing_time\"":1051},{\""page_index\"":2,\""viewing_time\"":1703},{\""page_index\"":3,\""viewing_time\"":985}]"", ""internal_node_id"": ""0.0-0.2-0.2"", ""time_elapsed"": 178474, ""trial_index"": 4}"
A10XW6SNPNQX16:3TYCR1GOTCJKTZON4TH2D0XUYF8ZLE,5,1495053735912,"{""rt"": 22297, ""trial_type"": ""survey-multi-choice"", ""responses"": ""[\""2\"",\""True\"",\""$1.60\"",\""As many or as few as I wish\"",\""5% of my score on a random round\"",\""The length of the day is based on how much more money I could have earned by planning and deciding better.\""]"", ""internal_node_id"": ""0.0-0.2-1.2"", ""time_elapsed"": 203708, ""questions"": ""[\""How many flights are there per round?\"",\""True or false: The hidden values will change each time I start a new round.\"",\""How much does it cost to observe each hidden value?\"",\""How many hidden values am I allowed to observe in each round?\"",\""How is your bonus determined?\"",\""What does the feedback teach you?\""]"", ""correct"": [false, true, true, true, true, false], ""trial_index"": 5}"
A10XW6SNPNQX16:3TYCR1GOTCJKTZON4TH2D0XUYF8ZLE,6,1495053766575,"{""rt"": 29660, ""trial_type"": ""instructions"", ""view_history"": ""[{\""page_index\"":0,\""viewing_time\"":7035},{\""page_index\"":1,\""viewing_time\"":4369},{\""page_index\"":2,\""viewing_time\"":7711},{\""page_index\"":3,\""viewing_time\"":10544}]"", ""internal_node_id"": ""0.0-0.3-0.3"", ""time_elapsed"": 234371, ""trial_index"": 6}"
A10XW6SNPNQX16:3TYCR1GOTCJKTZON4TH2D0XUYF8ZLE,7,1495053787960,"{""rt"": 18498, ""trial_type"": ""survey-multi-choice"", ""responses"": ""[\""2\"",\""False\"",\""$1.60\"",\""As many or as few as I wish\"",\""5% of my score on a random round\"",\""All of the above.\""]"", ""internal_node_id"": ""0.0-0.3-1.3"", ""time_elapsed"": 255756, ""questions"": ""[\""How many flights are there per round?\"",\""True or false: The hidden values will change each time I start a new round.\"",\""How much does it cost to observe each hidden value?\"",\""How many hidden values am I allowed to observe in each round?\"",\""How is your bonus determined?\"",\""What does the feedback teach you?\""]"", ""correct"": [false, false, true, true, true, true], ""trial_index"": 7}"
A10XW6SNPNQX16:3TYCR1GOTCJKTZON4TH2D0XUYF8ZLE,8,1495053803260,"{""rt"": 14297, ""trial_type"": ""instructions"", ""view_history"": ""[{\""page_index\"":0,\""viewing_time\"":2321},{\""page_index\"":1,\""viewing_time\"":1255},{\""page_index\"":2,\""viewing_time\"":9544},{\""page_index\"":3,\""viewing_time\"":1176}]"", ""internal_node_id"": ""0.0-0.4-0.4"", ""time_elapsed"": 271057, ""trial_index"": 8}"
A10XW6SNPNQX16:3TYCR1GOTCJKTZON4TH2D0XUYF8ZLE,9,1495053829954,"{""rt"": 15038, ""trial_type"": ""survey-multi-choice"", ""responses"": ""[\""2\"",\""True\"",\""$1.60\"",\""As many or as few as I wish\"",\""5% of my score on a random round\"",\""Whether I chose the move that was best according to the information I had.\""]"", ""internal_node_id"": ""0.0-0.4-1.4"", ""time_elapsed"": 297751, ""questions"": ""[\""How many flights are there per round?\"",\""True or false: The hidden values will change each time I start a new round.\"",\""How much does it cost to observe each hidden value?\"",\""How many hidden values am I allowed to observe in each round?\"",\""How is your bonus determined?\"",\""What does the feedback teach you?\""]"", ""correct"": [false, true, true, true, true, false], ""trial_index"": 9}"
A10XW6SNPNQX16:3TYCR1GOTCJKTZON4TH2D0XUYF8ZLE,10,1495053844052,"{""rt"": 13094, ""trial_type"": ""instructions"", ""view_history"": ""[{\""page_index\"":0,\""viewing_time\"":3269},{\""page_index\"":1,\""viewing_time\"":2617},{\""page_index\"":2,\""viewing_time\"":5688},{\""page_index\"":3,\""viewing_time\"":1519}]"", ""internal_node_id"": ""0.0-0.5-0.5"", ""time_elapsed"": 311849, ""trial_index"": 10}"
A10XW6SNPNQX16:3TYCR1GOTCJKTZON4TH2D0XUYF8ZLE,11,1495053858719,"{""rt"": 12271, ""trial_type"": ""survey-multi-choice"", ""responses"": ""[\""2\"",\""True\"",\""$1.60\"",\""As many or as few as I wish\"",\""5% of my score on a random round\"",\""The length of the day is based on how much more money I could have earned by planning and deciding better.\""]"", ""internal_node_id"": ""0.0-0.5-1.5"", ""time_elapsed"": 326516, ""questions"": ""[\""How many flights are there per round?\"",\""True or false: The hidden values will change each time I start a new round.\"",\""How much does it cost to observe each hidden value?\"",\""How many hidden values am I allowed to observe in each round?\"",\""How is your bonus determined?\"",\""What does the feedback teach you?\""]"", ""correct"": [false, true, true, true, true, false], ""trial_index"": 11}"
A10XW6SNPNQX16:3TYCR1GOTCJKTZON4TH2D0XUYF8ZLE,12,1495053884255,"{""rt"": 24529, ""trial_type"": ""instructions"", ""view_history"": ""[{\""page_index\"":0,\""viewing_time\"":12670},{\""page_index\"":1,\""viewing_time\"":1167},{\""page_index\"":2,\""viewing_time\"":1992},{\""page_index\"":3,\""viewing_time\"":8698}]"", ""internal_node_id"": ""0.0-0.6-0.6"", ""time_elapsed"": 352051, ""trial_index"": 12}"
A10XW6SNPNQX16:3TYCR1GOTCJKTZON4TH2D0XUYF8ZLE,13,1495053911319,"{""rt"": 24085, ""trial_type"": ""survey-multi-choice"", ""responses"": ""[\""2\"",\""True\"",\""$1.60\"",\""As many or as few as I wish\"",\""5% of my score on a random round\"",\""Whether I observed the rewards of relevant locations.\""]"", ""internal_node_id"": ""0.0-0.6-1.6"", ""time_elapsed"": 379115, ""questions"": ""[\""How many flights are there per round?\"",\""True or false: The hidden values will change each time I start a new round.\"",\""How much does it cost to observe each hidden value?\"",\""How many hidden values am I allowed to observe in each round?\"",\""How is your bonus determined?\"",\""What does the feedback teach you?\""]"", ""correct"": [false, true, true, true, true, false], ""trial_index"": 13}"
A10XW6SNPNQX16:3TYCR1GOTCJKTZON4TH2D0XUYF8ZLE,14,1495053964020,"{""rt"": 51697, ""trial_type"": ""instructions"", ""view_history"": ""[{\""page_index\"":0,\""viewing_time\"":46865},{\""page_index\"":1,\""viewing_time\"":991},{\""page_index\"":2,\""viewing_time\"":2208},{\""page_index\"":3,\""viewing_time\"":1632}]"", ""internal_node_id"": ""0.0-0.7-0.7"", ""time_elapsed"": 431816, ""trial_index"": 14}"
A10XW6SNPNQX16:3TYCR1GOTCJKTZON4TH2D0XUYF8ZLE,15,1495053975325,"{""rt"": 10259, ""trial_type"": ""survey-multi-choice"", ""responses"": ""[\""3\"",\""True\"",\""$1.60\"",\""As many or as few as I wish\"",\""5% of my score on a random round\"",\""All of the above.\""]"", ""internal_node_id"": ""0.0-0.7-1.7"", ""time_elapsed"": 443122, ""questions"": ""[\""How many flights are there per round?\"",\""True or false: The hidden values will change each time I start a new round.\"",\""How much does it cost to observe each hidden value?\"",\""How many hidden values am I allowed to observe in each round?\"",\""How is your bonus determined?\"",\""What does the feedback teach you?\""]"", ""correct"": [true, true, true, true, true, true], ""trial_index"": 15}"
A10XW6SNPNQX16:3TYCR1GOTCJKTZON4TH2D0XUYF8ZLE,16,1495054074821,"{""rt"": [19128, 68, 4], ""trial_type"": ""graph"", ""infoCost"": 1.6, ""feedback"": true, ""minTime"": 45, ""delays"": [-7, -4, 6], ""actionTimes"": [19129, 20272, 21362], ""time_elapsed"": 542617, ""actions"": [""left"", ""left"", ""down""], ""trialIndex"": 1, ""score"": 40, ""trial_index"": 16, ""internal_node_id"": ""0.0-1.0-0.0"", ""clickTimes"": [], ""path"": [1, 4, 8, 15], ""trialID"": 0, ""clicks"": [], ""condition"": 4}"
A10XW6SNPNQX16:3TYCR1GOTCJKTZON4TH2D0XUYF8ZLE,17,1495054123164,"{""rt"": [15998, 4, 4], ""trial_type"": ""graph"", ""infoCost"": 1.6, ""feedback"": true, ""minTime"": 45, ""delays"": [-3, 0, 0], ""actionTimes"": [15998, 17012, 18030], ""time_elapsed"": 590961, ""actions"": [""down"", ""down"", ""right""], ""trialIndex"": 2, ""score"": 29.2, ""trial_index"": 17, ""internal_node_id"": ""0.0-1.0-1.0"", ""clickTimes"": [3451, 6222, 7825, 9057, 10014, 10889, 12378, 13417], ""path"": [1, 5, 9, 17], ""trialID"": 4, ""clicks"": [""12"", ""13"", ""10"", ""11"", ""17"", ""16"", ""15"", ""14""], ""condition"": 4}"
A10XW6SNPNQX16:3TYCR1GOTCJKTZON4TH2D0XUYF8ZLE,18,1495054182267,"{""rt"": [772, 175, 3], ""trial_type"": ""graph"", ""infoCost"": 1.6, ""feedback"": true, ""minTime"": 45, ""delays"": [-7, -4, 6], ""actionTimes"": [772, 1951, 2961], ""time_elapsed"": 650063, ""actions"": [""right"", ""right"", ""up""], ""trialIndex"": 3, ""score"": 22, ""trial_index"": 18, ""internal_node_id"": ""0.0-1.0-2.0"", ""clickTimes"": [], ""path"": [1, 2, 6, 10], ""trialID"": 7, ""clicks"": [], ""condition"": 4}"
A10XW6SNPNQX16:3TYCR1GOTCJKTZON4TH2D0XUYF8ZLE,19,1495054231334,"{""rt"": [3038, 3, 4], ""trial_type"": ""graph"", ""infoCost"": 1.6, ""feedback"": true, ""minTime"": 45, ""delays"": [-20, -4, -2], ""actionTimes"": [3038, 4382, 5464], ""time_elapsed"": 699131, ""actions"": [""down"", ""down"", ""left""], ""trialIndex"": 4, ""score"": 44.4, ""trial_index"": 19, ""internal_node_id"": ""0.0-1.0-3.0"", ""clickTimes"": [946], ""path"": [1, 5, 9, 16], ""trialID"": 1, ""clicks"": [""16""], ""condition"": 4}"
A10XW6SNPNQX16:3TYCR1GOTCJKTZON4TH2D0XUYF8ZLE,20,1495054286159,"{""rt"": [9198, 11, 4], ""trial_type"": ""graph"", ""infoCost"": 1.6, ""feedback"": true, ""minTime"": 45, ""delays"": [-5, -4, 0], ""actionTimes"": [9198, 10199, 11246], ""time_elapsed"": 753955, ""actions"": [""up"", ""up"", ""left""], ""trialIndex"": 5, ""score"": 24.2, ""trial_index"": 20, ""internal_node_id"": ""0.0-1.0-4.0"", ""clickTimes"": [949, 1919, 3303, 4127, 4855, 5463, 6287, 6927], ""path"": [1, 3, 7, 12], ""trialID"": 6, ""clicks"": [""14"", ""12"", ""13"", ""10"", ""11"", ""17"", ""16"", ""15""], ""condition"": 4}"
A10XW6SNPNQX16:3TYCR1GOTCJKTZON4TH2D0XUYF8ZLE,21,1495054339555,"{""rt"": [3642, 5, 5], ""trial_type"": ""graph"", ""infoCost"": 1.6, ""feedback"": true, ""minTime"": 45, ""delays"": [-13, -4, 5], ""actionTimes"": [3643, 5086, 6143], ""time_elapsed"": 807352, ""actions"": [""down"", ""down"", ""right""], ""trialIndex"": 6, ""score"": 10.8, ""trial_index"": 21, ""internal_node_id"": ""0.0-1.0-5.0"", ""clickTimes"": [622, 2165], ""path"": [1, 5, 9, 17], ""trialID"": 5, ""clicks"": [""12"", ""17""], ""condition"": 4}"
A10XW6SNPNQX16:3TYCR1GOTCJKTZON4TH2D0XUYF8ZLE,22,1495054389572,"{""rt"": [1823, 73, 22], ""trial_type"": ""graph"", ""infoCost"": 1.6, ""feedback"": true, ""minTime"": 45, ""delays"": [-16, -4, -6], ""actionTimes"": [1823, 3201, 4352], ""time_elapsed"": 857368, ""actions"": [""right"", ""right"", ""up""], ""trialIndex"": 7, ""score"": 32.4, ""trial_index"": 22, ""internal_node_id"": ""0.0-1.0-6.0"", ""clickTimes"": [685], ""path"": [1, 2, 6, 10], ""trialID"": 3, ""clicks"": [""10""], ""condition"": 4}"
A10XW6SNPNQX16:3TYCR1GOTCJKTZON4TH2D0XUYF8ZLE,23,1495054447977,"{""rt"": [5841, 3, 3], ""trial_type"": ""graph"", ""infoCost"": 1.6, ""feedback"": true, ""minTime"": 45, ""delays"": [-1, -4, -4], ""actionTimes"": [5842, 6921, 7928], ""time_elapsed"": 915773, ""actions"": [""up"", ""up"", ""left""], ""trialIndex"": 8, ""score"": 8.6, ""trial_index"": 23, ""internal_node_id"": ""0.0-1.0-7.0"", ""clickTimes"": [1123, 2499, 3530, 4387], ""path"": [1, 3, 7, 12], ""trialID"": 2, ""clicks"": [""16"", ""17"", ""13"", ""12""], ""condition"": 4}"
A10XW6SNPNQX16:3TYCR1GOTCJKTZON4TH2D0XUYF8ZLE,24,1495054456270,"{""rt"": 7266, ""trial_type"": ""button-response"", ""button_pressed"": 0, ""stimulus"": ""<h1 id=\""thiscompletesthehit\"">This completes the HIT</h1>\n\n<p>One or your trials has been randomly selected and we will pay you 5% of your profit on that trial as a bonus. You will be awarded a bonus of $2.22</p>"", ""internal_node_id"": ""0.0-2.0"", ""time_elapsed"": 924067, ""trial_index"": 24}"
A1295RHU5X5GTX:3PMBY0YE273CK4C4NIU4XT5EP36C9W,0,1495053874931,"{""rt"": 25093, ""trial_type"": ""instructions"", ""view_history"": ""[{\""page_index\"":0,\""viewing_time\"":15390},{\""page_index\"":1,\""viewing_time\"":8750},{\""page_index\"":2,\""viewing_time\"":952}]"", ""internal_node_id"": ""0.0-0.0-0.0"", ""time_elapsed"": 25094, ""trial_index"": 0}"
A1295RHU5X5GTX:3PMBY0YE273CK4C4NIU4XT5EP36C9W,1,1495053890366,"{""rt"": 14394, ""trial_type"": ""survey-multi-choice"", ""responses"": ""[\""3\"",\""True\"",\""$1.60\"",\""As many or as few as I wish\"",\""5% of my score on a random round\""]"", ""internal_node_id"": ""0.0-0.0-1.0"", ""time_elapsed"": 40529, ""questions"": ""[\""How many flights are there per round?\"",\""True or false: The hidden values will change each time I start a new round.\"",\""How much does it cost to observe each hidden value?\"",\""How many hidden values am I allowed to observe in each round?\"",\""How is your bonus determined?\""]"", ""correct"": [true, true, true, true, true], ""trial_index"": 1}"
A1295RHU5X5GTX:3PMBY0YE273CK4C4NIU4XT5EP36C9W,2,1495053952084,"{""rt"": [7740, 693, 3106], ""trial_type"": ""graph"", ""infoCost"": 1.6, ""feedback"": true, ""minTime"": 45, ""delays"": [8, 0, 1], ""actionTimes"": [7741, 17692, 22020], ""time_elapsed"": 102246, ""actions"": [""right"", ""right"", ""up""], ""trialIndex"": 1, ""score"": 22, ""trial_index"": 2, ""internal_node_id"": ""0.0-1.0-0.0"", ""clickTimes"": [], ""path"": [1, 2, 6, 10], ""trialID"": 4, ""clicks"": [], ""condition"": 3}"
A1295RHU5X5GTX:3PMBY0YE273CK4C4NIU4XT5EP36C9W,3,1495054016632,"{""rt"": [8034, 1580, 3168], ""trial_type"": ""graph"", ""infoCost"": 1.6, ""feedback"": true, ""minTime"": 45, ""delays"": [8, 0, 1], ""actionTimes"": [8034, 19064, 23512], ""time_elapsed"": 166794, ""actions"": [""right"", ""right"", ""up""], ""trialIndex"": 2, ""score"": 15.6, ""trial_index"": 3, ""internal_node_id"": ""0.0-1.0-1.0"", ""clickTimes"": [1853, 4278, 5406, 6436], ""path"": [1, 2, 6, 10], ""trialID"": 7, ""clicks"": [""3"", ""4"", ""5"", ""2""], ""condition"": 3}"
A1295RHU5X5GTX:3PMBY0YE273CK4C4NIU4XT5EP36C9W,4,1495054079010,"{""rt"": [21418, 590, 2436], ""trial_type"": ""graph"", ""infoCost"": 1.6, ""feedback"": true, ""minTime"": 45, ""delays"": [8, 0, 1], ""actionTimes"": [21419, 31280, 34940], ""time_elapsed"": 229173, ""actions"": [""right"", ""right"", ""up""], ""trialIndex"": 3, ""score"": 21.2, ""trial_index"": 4, ""internal_node_id"": ""0.0-1.0-2.0"", ""clickTimes"": [1468, 2838, 4356, 5555, 9411, 11515, 12965, 14578], ""path"": [1, 2, 6, 10], ""trialID"": 2, ""clicks"": [""12"", ""10"", ""17"", ""14"", ""11"", ""13"", ""16"", ""15""], ""condition"": 3}"
A1295RHU5X5GTX:3PMBY0YE273CK4C4NIU4XT5EP36C9W,5,1495054137495,"{""rt"": [1116, 1335, 1504], ""trial_type"": ""graph"", ""infoCost"": 1.6, ""feedback"": true, ""minTime"": 45, ""delays"": [8, 0, 1], ""actionTimes"": [1118, 11744, 14524], ""time_elapsed"": 287658, ""actions"": [""right"", ""right"", ""up""], ""trialIndex"": 4, ""score"": 8, ""trial_index"": 5, ""internal_node_id"": ""0.0-1.0-3.0"", ""clickTimes"": [], ""path"": [1, 2, 6, 10], ""trialID"": 1, ""clicks"": [], ""condition"": 3}"
A1295RHU5X5GTX:3PMBY0YE273CK4C4NIU4XT5EP36C9W,6,1495054199104,"{""rt"": [1686, 17751, 6], ""trial_type"": ""graph"", ""infoCost"": 1.6, ""feedback"": true, ""minTime"": 45, ""delays"": [8, 0, 1], ""actionTimes"": [1686, 28710, 30021], ""time_elapsed"": 349267, ""actions"": [""up"", ""up"", ""right""], ""trialIndex"": 5, ""score"": 11.8, ""trial_index"": 6, ""internal_node_id"": ""0.0-1.0-4.0"", ""clickTimes"": [13972, 15016], ""path"": [1, 3, 7, 13], ""trialID"": 0, ""clicks"": [""12"", ""13""], ""condition"": 3}"
A1295RHU5X5GTX:3PMBY0YE273CK4C4NIU4XT5EP36C9W,7,1495054260062,"{""rt"": [4375, 13495, 5330], ""trial_type"": ""graph"", ""infoCost"": 1.6, ""feedback"": true, ""minTime"": 45, ""delays"": [8, 0, 1], ""actionTimes"": [4375, 27158, 33877], ""time_elapsed"": 410224, ""actions"": [""left"", ""left"", ""down""], ""trialIndex"": 6, ""score"": 26.4, ""trial_index"": 7, ""internal_node_id"": ""0.0-1.0-5.0"", ""clickTimes"": [30499], ""path"": [1, 4, 8, 15], ""trialID"": 6, ""clicks"": [""14""], ""condition"": 3}"
A1295RHU5X5GTX:3PMBY0YE273CK4C4NIU4XT5EP36C9W,8,1495054331657,"{""rt"": [2413, 48891, 2563], ""trial_type"": ""graph"", ""infoCost"": 1.6, ""feedback"": true, ""minTime"": 45, ""delays"": [8, 0, 1], ""actionTimes"": [2414, 60570, 64750], ""time_elapsed"": 481820, ""actions"": [""down"", ""down"", ""left""], ""trialIndex"": 7, ""score"": 12.8, ""trial_index"": 8, ""internal_node_id"": ""0.0-1.0-6.0"", ""clickTimes"": [58393, 63455], ""path"": [1, 5, 9, 16], ""trialID"": 5, ""clicks"": [""17"", ""16""], ""condition"": 3}"
A1295RHU5X5GTX:3PMBY0YE273CK4C4NIU4XT5EP36C9W,9,1495054423142,"{""rt"": [1833, 23090, 3337], ""trial_type"": ""graph"", ""infoCost"": 1.6, ""feedback"": true, ""minTime"": 45, ""delays"": [8, 0, 1], ""actionTimes"": [1833, 34221, 38894], ""time_elapsed"": 573305, ""actions"": [""right"", ""right"", ""up""], ""trialIndex"": 8, ""score"": 32.4, ""trial_index"": 9, ""internal_node_id"": ""0.0-1.0-7.0"", ""clickTimes"": [36778], ""path"": [1, 2, 6, 10], ""trialID"": 3, ""clicks"": [""10""], ""condition"": 3}"
A1295RHU5X5GTX:3PMBY0YE273CK4C4NIU4XT5EP36C9W,10,1495054429311,"{""rt"": 5148, ""trial_type"": ""button-response"", ""button_pressed"": 0, ""stimulus"": ""<h1 id=\""thiscompletesthehit\"">This completes the HIT</h1>\n\n<p>One or your trials has been randomly selected and we will pay you 5% of your profit on that trial as a bonus. You will be awarded a bonus of $1.32</p>"", ""internal_node_id"": ""0.0-2.0"", ""time_elapsed"": 579473, ""trial_index"": 10}"
A12PE8K7GG1EO6:3XIQGXAUMC8W9JZ6ZHS7XAZIVV67XH,0,1495053967782,"{""rt"": 123390, ""trial_type"": ""instructions"", ""view_history"": ""[{\""page_index\"":0,\""viewing_time\"":59503},{\""page_index\"":1,\""viewing_time\"":40766},{\""page_index\"":2,\""viewing_time\"":23120}]"", ""internal_node_id"": ""0.0-0.0-0.0"", ""time_elapsed"": 123392, ""trial_index"": 0}"
A12PE8K7GG1EO6:3XIQGXAUMC8W9JZ6ZHS7XAZIVV67XH,1,1495054014869,"{""rt"": 42866, ""trial_type"": ""survey-multi-choice"", ""responses"": ""[\""3\"",\""True\"",\""$2.80\"",\""As many or as few as I wish\"",\""5% of my best score on any round\""]"", ""internal_node_id"": ""0.0-0.0-1.0"", ""time_elapsed"": 170479, ""questions"": ""[\""How many flights are there per round?\"",\""True or false: The hidden values will change each time I start a new round.\"",\""How much does it cost to observe each hidden value?\"",\""How many hidden values am I allowed to observe in each round?\"",\""How is your bonus determined?\""]"", ""correct"": [true, true, true, true, false], ""trial_index"": 1}"
A12PE8K7GG1EO6:3XIQGXAUMC8W9JZ6ZHS7XAZIVV67XH,2,1495054075491,"{""rt"": 59619, ""trial_type"": ""instructions"", ""view_history"": ""[{\""page_index\"":0,\""viewing_time\"":32893},{\""page_index\"":1,\""viewing_time\"":16131},{\""page_index\"":2,\""viewing_time\"":10594}]"", ""internal_node_id"": ""0.0-0.1-0.1"", ""time_elapsed"": 231101, ""trial_index"": 2}"
A12PE8K7GG1EO6:3XIQGXAUMC8W9JZ6ZHS7XAZIVV67XH,3,1495054089117,"{""rt"": 12610, ""trial_type"": ""survey-multi-choice"", ""responses"": ""[\""3\"",\""True\"",\""$2.80\"",\""As many or as few as I wish\"",\""5% of my score on a random round\""]"", ""internal_node_id"": ""0.0-0.1-1.1"", ""time_elapsed"": 244726, ""questions"": ""[\""How many flights are there per round?\"",\""True or false: The hidden values will change each time I start a new round.\"",\""How much does it cost to observe each hidden value?\"",\""How many hidden values am I allowed to observe in each round?\"",\""How is your bonus determined?\""]"", ""correct"": [true, true, true, true, true], ""trial_index"": 3}"
A12VQHPT0YHMIS:3M81GAB8A0JZ2Y1KQK9V84PLHIABQA,0,1495053674692,"{""rt"": 68390, ""trial_type"": ""instructions"", ""view_history"": ""[{\""page_index\"":0,\""viewing_time\"":31602},{\""page_index\"":1,\""viewing_time\"":11293},{\""page_index\"":2,\""viewing_time\"":13208},{\""page_index\"":3,\""viewing_time\"":12286}]"", ""internal_node_id"": ""0.0-0.0-0.0"", ""time_elapsed"": 68390, ""trial_index"": 0}"
A12VQHPT0YHMIS:3M81GAB8A0JZ2Y1KQK9V84PLHIABQA,1,1495053761429,"{""rt"": 79158, ""trial_type"": ""survey-multi-choice"", ""responses"": ""[\""1\"",\""True\"",\""$1.60\"",\""As many or as few as I wish\"",\""5% of my score on a random round\"",\""All of the above.\""]"", ""internal_node_id"": ""0.0-0.0-1.0"", ""time_elapsed"": 155128, ""questions"": ""[\""How many flights are there per round?\"",\""True or false: The hidden values will change each time I start a new round.\"",\""How much does it cost to observe each hidden value?\"",\""How many hidden values am I allowed to observe in each round?\"",\""How is your bonus determined?\"",\""What does the feedback teach you?\""]"", ""correct"": [false, true, true, true, true, true], ""trial_index"": 1}"
A12VQHPT0YHMIS:3M81GAB8A0JZ2Y1KQK9V84PLHIABQA,2,1495053824523,"{""rt"": 62092, ""trial_type"": ""instructions"", ""view_history"": ""[{\""page_index\"":0,\""viewing_time\"":21307},{\""page_index\"":1,\""viewing_time\"":17576},{\""page_index\"":2,\""viewing_time\"":16425},{\""page_index\"":3,\""viewing_time\"":6783}]"", ""internal_node_id"": ""0.0-0.1-0.1"", ""time_elapsed"": 218222, ""trial_index"": 2}"
A12VQHPT0YHMIS:3M81GAB8A0JZ2Y1KQK9V84PLHIABQA,3,1495053878008,"{""rt"": 46746, ""trial_type"": ""survey-multi-choice"", ""responses"": ""[\""1\"",\""True\"",\""$1.60\"",\""As many or as few as I wish\"",\""5% of my score on a random round\"",\""Whether I chose the move that was best according to the information I had.\""]"", ""internal_node_id"": ""0.0-0.1-1.1"", ""time_elapsed"": 271707, ""questions"": ""[\""How many flights are there per round?\"",\""True or false: The hidden values will change each time I start a new round.\"",\""How much does it cost to observe each hidden value?\"",\""How many hidden values am I allowed to observe in each round?\"",\""How is your bonus determined?\"",\""What does the feedback teach you?\""]"", ""correct"": [false, true, true, true, true, false], ""trial_index"": 3}"
A12VQHPT0YHMIS:3M81GAB8A0JZ2Y1KQK9V84PLHIABQA,4,1495053884124,"{""rt"": 5115, ""trial_type"": ""instructions"", ""view_history"": ""[{\""page_index\"":0,\""viewing_time\"":1746},{\""page_index\"":1,\""viewing_time\"":1061},{\""page_index\"":2,\""viewing_time\"":1248},{\""page_index\"":3,\""viewing_time\"":1060}]"", ""internal_node_id"": ""0.0-0.2-0.2"", ""time_elapsed"": 277823, ""trial_index"": 4}"
A12VQHPT0YHMIS:3M81GAB8A0JZ2Y1KQK9V84PLHIABQA,5,1495053945772,"{""rt"": 60636, ""trial_type"": ""survey-multi-choice"", ""responses"": ""[\""3\"",\""True\"",\""$1.60\"",\""As many or as few as I wish\"",\""5% of my score on a random round\"",\""All of the above.\""]"", ""internal_node_id"": ""0.0-0.2-1.2"", ""time_elapsed"": 339471, ""questions"": ""[\""How many flights are there per round?\"",\""True or false: The hidden values will change each time I start a new round.\"",\""How much does it cost to observe each hidden value?\"",\""How many hidden values am I allowed to observe in each round?\"",\""How is your bonus determined?\"",\""What does the feedback teach you?\""]"", ""correct"": [true, true, true, true, true, true], ""trial_index"": 5}"
A12VQHPT0YHMIS:3M81GAB8A0JZ2Y1KQK9V84PLHIABQA,6,1495054005093,"{""rt"": [6214, 1, 1], ""trial_type"": ""graph"", ""infoCost"": 1.6, ""feedback"": true, ""minTime"": 45, ""delays"": [-2, 0, 8], ""actionTimes"": [6214, 7642, 8768], ""time_elapsed"": 398791, ""actions"": [""up"", ""up"", ""left""], ""trialIndex"": 1, ""score"": -3.8, ""trial_index"": 6, ""internal_node_id"": ""0.0-1.0-0.0"", ""clickTimes"": [21690, 24569, 39646], ""path"": [1, 3, 7, 12], ""trialID"": 5, ""clicks"": [""13"", ""6"", ""10""], ""condition"": 5}"
A12VQHPT0YHMIS:3M81GAB8A0JZ2Y1KQK9V84PLHIABQA,7,1495054063920,"{""rt"": [4762, 110, 121], ""trial_type"": ""graph"", ""infoCost"": 1.6, ""feedback"": true, ""minTime"": 45, ""delays"": [-9, -10, 8], ""actionTimes"": [4762, 6229, 7324], ""time_elapsed"": 457619, ""actions"": [""right"", ""right"", ""down""], ""trialIndex"": 2, ""score"": 14.4, ""trial_index"": 7, ""internal_node_id"": ""0.0-1.0-1.0"", ""clickTimes"": [2227], ""path"": [1, 2, 6, 11], ""trialID"": 6, ""clicks"": [""11""], ""condition"": 5}"
A12VQHPT0YHMIS:3M81GAB8A0JZ2Y1KQK9V84PLHIABQA,8,1495054126194,"{""rt"": [5704, 1484, 409], ""trial_type"": ""graph"", ""infoCost"": 1.6, ""feedback"": true, ""minTime"": 45, ""delays"": [13, 0, 0], ""actionTimes"": [5704, 21640, 23045], ""time_elapsed"": 519893, ""actions"": [""down"", ""down"", ""right""], ""trialIndex"": 3, ""score"": -2.4, ""trial_index"": 8, ""internal_node_id"": ""0.0-1.0-2.0"", ""clickTimes"": [1444, 2110, 3254, 4263], ""path"": [1, 5, 9, 17], ""trialID"": 2, ""clicks"": [""15"", ""14"", ""16"", ""17""], ""condition"": 5}"
A12VQHPT0YHMIS:3M81GAB8A0JZ2Y1KQK9V84PLHIABQA,9,1495054187272,"{""rt"": [2862, 603, 674], ""trial_type"": ""graph"", ""infoCost"": 1.6, ""feedback"": true, ""minTime"": 45, ""delays"": [3, 0, 9], ""actionTimes"": [2862, 8019, 9775], ""time_elapsed"": 580971, ""actions"": [""left"", ""left"", ""down""], ""trialIndex"": 4, ""score"": 4.4, ""trial_index"": 9, ""internal_node_id"": ""0.0-1.0-3.0"", ""clickTimes"": [2118], ""path"": [1, 4, 8, 15], ""trialID"": 7, ""clicks"": [""15""], ""condition"": 5}"
A12VQHPT0YHMIS:3M81GAB8A0JZ2Y1KQK9V84PLHIABQA,10,1495054236026,"{""rt"": [10974, 1, 8], ""trial_type"": ""graph"", ""infoCost"": 1.6, ""feedback"": true, ""minTime"": 45, ""delays"": [-5, 0, -1], ""actionTimes"": [10974, 12509, 13664], ""time_elapsed"": 629725, ""actions"": [""down"", ""down"", ""left""], ""trialIndex"": 5, ""score"": 38, ""trial_index"": 10, ""internal_node_id"": ""0.0-1.0-4.0"", ""clickTimes"": [3515, 7780, 8648, 9430, 10251], ""path"": [1, 5, 9, 16], ""trialID"": 1, ""clicks"": [""11"", ""13"", ""12"", ""17"", ""16""], ""condition"": 5}"
A12VQHPT0YHMIS:3M81GAB8A0JZ2Y1KQK9V84PLHIABQA,11,1495054286614,"{""rt"": [3398, 2, 1], ""trial_type"": ""graph"", ""infoCost"": 1.6, ""feedback"": true, ""minTime"": 45, ""delays"": [-19, 0, -1], ""actionTimes"": [3398, 4967, 6031], ""time_elapsed"": 680313, ""actions"": [""down"", ""down"", ""right""], ""trialIndex"": 6, ""score"": 40.4, ""trial_index"": 11, ""internal_node_id"": ""0.0-1.0-5.0"", ""clickTimes"": [2028], ""path"": [1, 5, 9, 17], ""trialID"": 4, ""clicks"": [""17""], ""condition"": 5}"
A12VQHPT0YHMIS:3M81GAB8A0JZ2Y1KQK9V84PLHIABQA,12,1495054341496,"{""rt"": [5233, 2, 192], ""trial_type"": ""graph"", ""infoCost"": 1.6, ""feedback"": true, ""minTime"": 45, ""delays"": [-23, 0, 7], ""actionTimes"": [5233, 6745, 8020], ""time_elapsed"": 735194, ""actions"": [""left"", ""left"", ""down""], ""trialIndex"": 7, ""score"": 36.8, ""trial_index"": 12, ""internal_node_id"": ""0.0-1.0-6.0"", ""clickTimes"": [2800, 4240], ""path"": [1, 4, 8, 15], ""trialID"": 0, ""clicks"": [""15"", ""14""], ""condition"": 5}"
A12VQHPT0YHMIS:3M81GAB8A0JZ2Y1KQK9V84PLHIABQA,13,1495054463565,"{""rt"": [5106, 1679, 1], ""trial_type"": ""graph"", ""infoCost"": 1.6, ""feedback"": true, ""minTime"": 45, ""delays"": [67, 0, -73], ""actionTimes"": [5107, 75209, 76195], ""time_elapsed"": 857264, ""actions"": [""right"", ""right"", ""up""], ""trialIndex"": 8, ""score"": 27.6, ""trial_index"": 13, ""internal_node_id"": ""0.0-1.0-7.0"", ""clickTimes"": [1547, 2390, 3232, 3898], ""path"": [1, 2, 6, 10], ""trialID"": 3, ""clicks"": [""12"", ""13"", ""11"", ""10""], ""condition"": 5}"
A12VQHPT0YHMIS:3M81GAB8A0JZ2Y1KQK9V84PLHIABQA,14,1495054469189,"{""rt"": 4615, ""trial_type"": ""button-response"", ""button_pressed"": 0, ""stimulus"": ""<h1 id=\""thiscompletesthehit\"">This completes the HIT</h1>\n\n<p>One or your trials has been randomly selected and we will pay you 5% of your profit on that trial as a bonus. You will be awarded a bonus of $1.90</p>"", ""internal_node_id"": ""0.0-2.0"", ""time_elapsed"": 862888, ""trial_index"": 14}"
A13I8ASC3JQ04P:36V4Q8R5ZK0VLP5HH9Z4MK0FTHDMQ9,0,1495054251762,"{""rt"": 113673, ""trial_type"": ""instructions"", ""view_history"": ""[{\""page_index\"":0,\""viewing_time\"":35875},{\""page_index\"":1,\""viewing_time\"":24365},{\""page_index\"":2,\""viewing_time\"":35384},{\""page_index\"":3,\""viewing_time\"":18048}]"", ""internal_node_id"": ""0.0-0.0-0.0"", ""time_elapsed"": 113674, ""trial_index"": 0}"
A13I8ASC3JQ04P:36V4Q8R5ZK0VLP5HH9Z4MK0FTHDMQ9,1,1495054288506,"{""rt"": 32072, ""trial_type"": ""survey-multi-choice"", ""responses"": ""[\""4\"",\""True\"",\""$2.80\"",\""As many or as few as I wish\"",\""10% of my best score on any round\"",\""All of the above.\""]"", ""internal_node_id"": ""0.0-0.0-1.0"", ""time_elapsed"": 150419, ""questions"": ""[\""How many flights are there per round?\"",\""True or false: The hidden values will change each time I start a new round.\"",\""How much does it cost to observe each hidden value?\"",\""How many hidden values am I allowed to observe in each round?\"",\""How is your bonus determined?\"",\""What does the feedback teach you?\""]"", ""correct"": [false, true, true, true, false, true], ""trial_index"": 1}"
A13I8ASC3JQ04P:36V4Q8R5ZK0VLP5HH9Z4MK0FTHDMQ9,2,1495054312989,"{""rt"": 23482, ""trial_type"": ""instructions"", ""view_history"": ""[{\""page_index\"":0,\""viewing_time\"":7309},{\""page_index\"":1,\""viewing_time\"":5239},{\""page_index\"":2,\""viewing_time\"":8568},{\""page_index\"":3,\""viewing_time\"":2364}]"", ""internal_node_id"": ""0.0-0.1-0.1"", ""time_elapsed"": 174902, ""trial_index"": 2}"
A13I8ASC3JQ04P:36V4Q8R5ZK0VLP5HH9Z4MK0FTHDMQ9,3,1495054355472,"{""rt"": 39430, ""trial_type"": ""survey-multi-choice"", ""responses"": ""[\""4\"",\""True\"",\""$2.80\"",\""As many or as few as I wish\"",\""5% of my score on a random round\"",\""All of the above.\""]"", ""internal_node_id"": ""0.0-0.1-1.1"", ""time_elapsed"": 217385, ""questions"": ""[\""How many flights are there per round?\"",\""True or false: The hidden values will change each time I start a new round.\"",\""How much does it cost to observe each hidden value?\"",\""How many hidden values am I allowed to observe in each round?\"",\""How is your bonus determined?\"",\""What does the feedback teach you?\""]"", ""correct"": [false, true, true, true, true, true], ""trial_index"": 3}"
A13I8ASC3JQ04P:36V4Q8R5ZK0VLP5HH9Z4MK0FTHDMQ9,4,1495054373651,"{""rt"": 17179, ""trial_type"": ""instructions"", ""view_history"": ""[{\""page_index\"":0,\""viewing_time\"":7888},{\""page_index\"":1,\""viewing_time\"":1623},{\""page_index\"":2,\""viewing_time\"":2133},{\""page_index\"":3,\""viewing_time\"":5534}]"", ""internal_node_id"": ""0.0-0.2-0.2"", ""time_elapsed"": 235564, ""trial_index"": 4}"
A13I8ASC3JQ04P:36V4Q8R5ZK0VLP5HH9Z4MK0FTHDMQ9,5,1495054388767,"{""rt"": 14082, ""trial_type"": ""survey-multi-choice"", ""responses"": ""[\""3\"",\""True\"",\""$2.80\"",\""As many or as few as I wish\"",\""5% of my score on a random round\"",\""All of the above.\""]"", ""internal_node_id"": ""0.0-0.2-1.2"", ""time_elapsed"": 250680, ""questions"": ""[\""How many flights are there per round?\"",\""True or false: The hidden values will change each time I start a new round.\"",\""How much does it cost to observe each hidden value?\"",\""How many hidden values am I allowed to observe in each round?\"",\""How is your bonus determined?\"",\""What does the feedback teach you?\""]"", ""correct"": [true, true, true, true, true, true], ""trial_index"": 5}"
A13I8ASC3JQ04P:36V4Q8R5ZK0VLP5HH9Z4MK0FTHDMQ9,6,1495054437739,"{""rt"": [3949, 4251, 8021], ""trial_type"": ""graph"", ""infoCost"": 2.8, ""feedback"": true, ""minTime"": 45, ""delays"": [-42, -6, 0], ""actionTimes"": [3950, 9431, 18654], ""time_elapsed"": 299652, ""actions"": [""up"", ""up"", ""left""], ""trialIndex"": 1, ""score"": 15.4, ""trial_index"": 6, ""internal_node_id"": ""0.0-1.0-0.0"", ""clickTimes"": [13859, 15997], ""path"": [1, 3, 7, 12], ""trialID"": 1, ""clicks"": [""12"", ""13""], ""condition"": 7}"
A13I8ASC3JQ04P:36V4Q8R5ZK0VLP5HH9Z4MK0FTHDMQ9,7,1495054485939,"{""rt"": [4189, 551, 2598], ""trial_type"": ""graph"", ""infoCost"": 2.8, ""feedback"": true, ""minTime"": 45, ""delays"": [-42, -6, -4], ""actionTimes"": [4190, 6180, 10124], ""time_elapsed"": 347851, ""actions"": [""up"", ""up"", ""right""], ""trialIndex"": 2, ""score"": -1.8, ""trial_index"": 7, ""internal_node_id"": ""0.0-1.0-1.0"", ""clickTimes"": [8589], ""path"": [1, 3, 7, 13], ""trialID"": 5, ""clicks"": [""12""], ""condition"": 7}"
A13I8ASC3JQ04P:36V4Q8R5ZK0VLP5HH9Z4MK0FTHDMQ9,8,1495054534227,"{""rt"": [5878, 218, 7216], ""trial_type"": ""graph"", ""infoCost"": 2.8, ""feedback"": true, ""minTime"": 45, ""delays"": [-34, -6, -6], ""actionTimes"": [5879, 7655, 16093], ""time_elapsed"": 396140, ""actions"": [""right"", ""right"", ""up""], ""trialIndex"": 3, ""score"": 2.4, ""trial_index"": 8, ""internal_node_id"": ""0.0-1.0-2.0"", ""clickTimes"": [2154, 15070], ""path"": [1, 2, 6, 10], ""trialID"": 0, ""clicks"": [""10"", ""11""], ""condition"": 7}"
A13I8ASC3JQ04P:36V4Q8R5ZK0VLP5HH9Z4MK0FTHDMQ9,9,1495054586946,"{""rt"": [4670, 3, 1778], ""trial_type"": ""graph"", ""infoCost"": 2.8, ""feedback"": true, ""minTime"": 45, ""delays"": [-47, -6, -11], ""actionTimes"": [4670, 6141, 9206], ""time_elapsed"": 448859, ""actions"": [""left"", ""left"", ""up""], ""trialIndex"": 4, ""score"": 15.2, ""trial_index"": 9, ""internal_node_id"": ""0.0-1.0-3.0"", ""clickTimes"": [1105], ""path"": [1, 4, 8, 14], ""trialID"": 7, ""clicks"": [""14""], ""condition"": 7}"
A13I8ASC3JQ04P:36V4Q8R5ZK0VLP5HH9Z4MK0FTHDMQ9,10,1495054636344,"{""rt"": [6899, 30, 356], ""trial_type"": ""graph"", ""infoCost"": 2.8, ""feedback"": true, ""minTime"": 45, ""delays"": [-55, -6, 0], ""actionTimes"": [6899, 8399, 10011], ""time_elapsed"": 498257, ""actions"": [""down"", ""down"", ""right""], ""trialIndex"": 5, ""score"": 36.4, ""trial_index"": 10, ""internal_node_id"": ""0.0-1.0-4.0"", ""clickTimes"": [3079, 5272], ""path"": [1, 5, 9, 17], ""trialID"": 4, ""clicks"": [""16"", ""17""], ""condition"": 7}"
A13I8ASC3JQ04P:36V4Q8R5ZK0VLP5HH9Z4MK0FTHDMQ9,11,1495054684692,"{""rt"": [12082, 4, 23], ""trial_type"": ""graph"", ""infoCost"": 2.8, ""feedback"": true, ""minTime"": 45, ""delays"": [-35, -6, -11], ""actionTimes"": [12082, 13749, 15060], ""time_elapsed"": 546605, ""actions"": [""right"", ""right"", ""up""], ""trialIndex"": 6, ""score"": 22.8, ""trial_index"": 11, ""internal_node_id"": ""0.0-1.0-5.0"", ""clickTimes"": [853, 2001, 4396, 7167], ""path"": [1, 2, 6, 10], ""trialID"": 2, ""clicks"": [""14"", ""15"", ""16"", ""10""], ""condition"": 7}"
A13I8ASC3JQ04P:36V4Q8R5ZK0VLP5HH9Z4MK0FTHDMQ9,12,1495054734243,"{""rt"": [5285, 2, 138], ""trial_type"": ""graph"", ""infoCost"": 2.8, ""feedback"": true, ""minTime"": 45, ""delays"": [-43, -6, -10], ""actionTimes"": [5286, 7079, 8534], ""time_elapsed"": 596156, ""actions"": [""up"", ""up"", ""left""], ""trialIndex"": 7, ""score"": 34.2, ""trial_index"": 12, ""internal_node_id"": ""0.0-1.0-6.0"", ""clickTimes"": [1176], ""path"": [1, 3, 7, 12], ""trialID"": 6, ""clicks"": [""12""], ""condition"": 7}"
A13I8ASC3JQ04P:36V4Q8R5ZK0VLP5HH9Z4MK0FTHDMQ9,13,1495054782643,"{""rt"": [6230, 6, 353], ""trial_type"": ""graph"", ""infoCost"": 2.8, ""feedback"": true, ""minTime"": 45, ""delays"": [-51, -6, 0], ""actionTimes"": [6232, 7746, 9311], ""time_elapsed"": 644556, ""actions"": [""left"", ""left"", ""down""], ""trialIndex"": 8, ""score"": 17.6, ""trial_index"": 13, ""internal_node_id"": ""0.0-1.0-7.0"", ""clickTimes"": [1295, 3029, 4505], ""path"": [1, 4, 8, 15], ""trialID"": 3, ""clicks"": [""14"", ""16"", ""15""], ""condition"": 7}"
A13I8ASC3JQ04P:36V4Q8R5ZK0VLP5HH9Z4MK0FTHDMQ9,14,1495054802648,"{""rt"": 18963, ""trial_type"": ""button-response"", ""button_pressed"": 0, ""stimulus"": ""<h1 id=\""thiscompletesthehit\"">This completes the HIT</h1>\n\n<p>One or your trials has been randomly selected and we will pay you 5% of your profit on that trial as a bonus. You will be awarded a bonus of $0.88</p>"", ""internal_node_id"": ""0.0-2.0"", ""time_elapsed"": 664561, ""trial_index"": 14}"
A13WFFPE9L1QAB:3G0WWMR1UVK137QHTAE4ZZPFY7PNQC,0,1495057815002,"{""rt"": 273515, ""trial_type"": ""instructions"", ""view_history"": ""[{\""page_index\"":0,\""viewing_time\"":81177},{\""page_index\"":1,\""viewing_time\"":181},{\""page_index\"":2,\""viewing_time\"":5796},{\""page_index\"":1,\""viewing_time\"":1856},{\""page_index\"":0,\""viewing_time\"":10827},{\""page_index\"":1,\""viewing_time\"":59885},{\""page_index\"":2,\""viewing_time\"":69236},{\""page_index\"":3,\""viewing_time\"":44555}]"", ""internal_node_id"": ""0.0-0.0-0.0"", ""time_elapsed"": 273519, ""trial_index"": 0}"
A13WFFPE9L1QAB:3G0WWMR1UVK137QHTAE4ZZPFY7PNQC,1,1495058124133,"{""rt"": 305231, ""trial_type"": ""survey-multi-choice"", ""responses"": ""[\""2\"",\""True\"",\""$2.80\"",\""As many or as few as I wish\"",\""5% of my score on a random round\"",\""All of the above.\""]"", ""internal_node_id"": ""0.0-0.0-1.0"", ""time_elapsed"": 582651, ""questions"": ""[\""How many flights are there per round?\"",\""True or false: The hidden values will change each time I start a new round.\"",\""How much does it cost to observe each hidden value?\"",\""How many hidden values am I allowed to observe in each round?\"",\""How is your bonus determined?\"",\""What does the feedback teach you?\""]"", ""correct"": [false, true, true, true, true, true], ""trial_index"": 1}"
A13WFFPE9L1QAB:3G0WWMR1UVK137QHTAE4ZZPFY7PNQC,2,1495058133534,"{""rt"": 8396, ""trial_type"": ""instructions"", ""view_history"": ""[{\""page_index\"":0,\""viewing_time\"":3458},{\""page_index\"":1,\""viewing_time\"":1112},{\""page_index\"":2,\""viewing_time\"":2129},{\""page_index\"":3,\""viewing_time\"":1696}]"", ""internal_node_id"": ""0.0-0.1-0.1"", ""time_elapsed"": 592052, ""trial_index"": 2}"
A13WFFPE9L1QAB:3G0WWMR1UVK137QHTAE4ZZPFY7PNQC,3,1495058304301,"{""rt"": 166947, ""trial_type"": ""survey-multi-choice"", ""responses"": ""[\""2\"",\""True\"",\""$2.80\"",\""As many or as few as I wish\"",\""5% of my score on a random round\"",\""Whether I chose the move that was best according to the information I had.\""]"", ""internal_node_id"": ""0.0-0.1-1.1"", ""time_elapsed"": 762819, ""questions"": ""[\""How many flights are there per round?\"",\""True or false: The hidden values will change each time I start a new round.\"",\""How much does it cost to observe each hidden value?\"",\""How many hidden values am I allowed to observe in each round?\"",\""How is your bonus determined?\"",\""What does the feedback teach you?\""]"", ""correct"": [false, true, true, true, true, false], ""trial_index"": 3}"
A13WFFPE9L1QAB:3G0WWMR1UVK137QHTAE4ZZPFY7PNQC,4,1495058348468,"{""rt"": 43166, ""trial_type"": ""instructions"", ""view_history"": ""[{\""page_index\"":0,\""viewing_time\"":2192},{\""page_index\"":1,\""viewing_time\"":1043},{\""page_index\"":2,\""viewing_time\"":3220},{\""page_index\"":1,\""viewing_time\"":13353},{\""page_index\"":0,\""viewing_time\"":17153},{\""page_index\"":1,\""viewing_time\"":1099},{\""page_index\"":2,\""viewing_time\"":3134},{\""page_index\"":3,\""viewing_time\"":1969}]"", ""internal_node_id"": ""0.0-0.2-0.2"", ""time_elapsed"": 806986, ""trial_index"": 4}"
A13WFFPE9L1QAB:3G0WWMR1UVK137QHTAE4ZZPFY7PNQC,5,1495058405942,"{""rt"": 53509, ""trial_type"": ""survey-multi-choice"", ""responses"": ""[\""2\"",\""True\"",\""$2.80\"",\""As many or as few as I wish\"",\""5% of my best score on any round\"",\""All of the above.\""]"", ""internal_node_id"": ""0.0-0.2-1.2"", ""time_elapsed"": 864459, ""questions"": ""[\""How many flights are there per round?\"",\""True or false: The hidden values will change each time I start a new round.\"",\""How much does it cost to observe each hidden value?\"",\""How many hidden values am I allowed to observe in each round?\"",\""How is your bonus determined?\"",\""What does the feedback teach you?\""]"", ""correct"": [false, true, true, true, false, true], ""trial_index"": 5}"
A13WFFPE9L1QAB:3G0WWMR1UVK137QHTAE4ZZPFY7PNQC,6,1495058413948,"{""rt"": 7004, ""trial_type"": ""instructions"", ""view_history"": ""[{\""page_index\"":0,\""viewing_time\"":1964},{\""page_index\"":1,\""viewing_time\"":1420},{\""page_index\"":2,\""viewing_time\"":2383},{\""page_index\"":3,\""viewing_time\"":1236}]"", ""internal_node_id"": ""0.0-0.3-0.3"", ""time_elapsed"": 872465, ""trial_index"": 6}"
A13WFFPE9L1QAB:3G0WWMR1UVK137QHTAE4ZZPFY7PNQC,7,1495058462077,"{""rt"": 45559, ""trial_type"": ""survey-multi-choice"", ""responses"": ""[\""2\"",\""True\"",\""$2.80\"",\""As many or as few as I wish\"",\""5% of my score on a random round\"",\""The length of the day is based on how much more money I could have earned by planning and deciding better.\""]"", ""internal_node_id"": ""0.0-0.3-1.3"", ""time_elapsed"": 920595, ""questions"": ""[\""How many flights are there per round?\"",\""True or false: The hidden values will change each time I start a new round.\"",\""How much does it cost to observe each hidden value?\"",\""How many hidden values am I allowed to observe in each round?\"",\""How is your bonus determined?\"",\""What does the feedback teach you?\""]"", ""correct"": [false, true, true, true, true, false], ""trial_index"": 7}"
A13WFFPE9L1QAB:3G0WWMR1UVK137QHTAE4ZZPFY7PNQC,8,1495058474315,"{""rt"": 11237, ""trial_type"": ""instructions"", ""view_history"": ""[{\""page_index\"":0,\""viewing_time\"":2653},{\""page_index\"":1,\""viewing_time\"":1158},{\""page_index\"":2,\""viewing_time\"":5957},{\""page_index\"":3,\""viewing_time\"":1467}]"", ""internal_node_id"": ""0.0-0.4-0.4"", ""time_elapsed"": 932833, ""trial_index"": 8}"
A13WFFPE9L1QAB:3G0WWMR1UVK137QHTAE4ZZPFY7PNQC,9,1495058518281,"{""rt"": 39813, ""trial_type"": ""survey-multi-choice"", ""responses"": ""[\""2\"",\""True\"",\""$2.80\"",\""As many or as few as I wish\"",\""5% of my score on a random round\"",\""All of the above.\""]"", ""internal_node_id"": ""0.0-0.4-1.4"", ""time_elapsed"": 976799, ""questions"": ""[\""How many flights are there per round?\"",\""True or false: The hidden values will change each time I start a new round.\"",\""How much does it cost to observe each hidden value?\"",\""How many hidden values am I allowed to observe in each round?\"",\""How is your bonus determined?\"",\""What does the feedback teach you?\""]"", ""correct"": [false, true, true, true, true, true], ""trial_index"": 9}"
A13WFFPE9L1QAB:3G0WWMR1UVK137QHTAE4ZZPFY7PNQC,10,1495058526036,"{""rt"": 6727, ""trial_type"": ""instructions"", ""view_history"": ""[{\""page_index\"":0,\""viewing_time\"":2693},{\""page_index\"":1,\""viewing_time\"":1019},{\""page_index\"":2,\""viewing_time\"":2069},{\""page_index\"":3,\""viewing_time\"":945}]"", ""internal_node_id"": ""0.0-0.5-0.5"", ""time_elapsed"": 984553, ""trial_index"": 10}"
A13WFFPE9L1QAB:3G0WWMR1UVK137QHTAE4ZZPFY7PNQC,11,1495058560577,"{""rt"": 27847, ""trial_type"": ""survey-multi-choice"", ""responses"": ""[\""2\"",\""True\"",\""$2.80\"",\""As many or as few as I wish\"",\""5% of my score on a random round\"",\""Whether I observed the rewards of relevant locations.\""]"", ""internal_node_id"": ""0.0-0.5-1.5"", ""time_elapsed"": 1019094, ""questions"": ""[\""How many flights are there per round?\"",\""True or false: The hidden values will change each time I start a new round.\"",\""How much does it cost to observe each hidden value?\"",\""How many hidden values am I allowed to observe in each round?\"",\""How is your bonus determined?\"",\""What does the feedback teach you?\""]"", ""correct"": [false, true, true, true, true, false], ""trial_index"": 11}"
A13WFFPE9L1QAB:3G0WWMR1UVK137QHTAE4ZZPFY7PNQC,12,1495058624514,"{""rt"": 62880, ""trial_type"": ""instructions"", ""view_history"": ""[{\""page_index\"":0,\""viewing_time\"":32620},{\""page_index\"":1,\""viewing_time\"":11657},{\""page_index\"":2,\""viewing_time\"":17135},{\""page_index\"":3,\""viewing_time\"":1467}]"", ""internal_node_id"": ""0.0-0.6-0.6"", ""time_elapsed"": 1083032, ""trial_index"": 12}"
A13WFFPE9L1QAB:3G0WWMR1UVK137QHTAE4ZZPFY7PNQC,13,1495058681432,"{""rt"": 51916, ""trial_type"": ""survey-multi-choice"", ""responses"": ""[\""2\"",\""True\"",\""$2.80\"",\""As many or as few as I wish\"",\""5% of my best score on any round\"",\""All of the above.\""]"", ""internal_node_id"": ""0.0-0.6-1.6"", ""time_elapsed"": 1139950, ""questions"": ""[\""How many flights are there per round?\"",\""True or false: The hidden values will change each time I start a new round.\"",\""How much does it cost to observe each hidden value?\"",\""How many hidden values am I allowed to observe in each round?\"",\""How is your bonus determined?\"",\""What does the feedback teach you?\""]"", ""correct"": [false, true, true, true, false, true], ""trial_index"": 13}"
A13WFFPE9L1QAB:3G0WWMR1UVK137QHTAE4ZZPFY7PNQC,14,1495058710914,"{""rt"": 28479, ""trial_type"": ""instructions"", ""view_history"": ""[{\""page_index\"":0,\""viewing_time\"":1956},{\""page_index\"":1,\""viewing_time\"":1473},{\""page_index\"":2,\""viewing_time\"":23598},{\""page_index\"":3,\""viewing_time\"":1451}]"", ""internal_node_id"": ""0.0-0.7-0.7"", ""time_elapsed"": 1169431, ""trial_index"": 14}"
A13WFFPE9L1QAB:3G0WWMR1UVK137QHTAE4ZZPFY7PNQC,15,1495058772561,"{""rt"": 57666, ""trial_type"": ""survey-multi-choice"", ""responses"": ""[\""2\"",\""True\"",\""$2.80\"",\""As many or as few as I wish\"",\""5% of my score on a random round\"",\""Whether I chose the move that was best according to the information I had.\""]"", ""internal_node_id"": ""0.0-0.7-1.7"", ""time_elapsed"": 1231078, ""questions"": ""[\""How many flights are there per round?\"",\""True or false: The hidden values will change each time I start a new round.\"",\""How much does it cost to observe each hidden value?\"",\""How many hidden values am I allowed to observe in each round?\"",\""How is your bonus determined?\"",\""What does the feedback teach you?\""]"", ""correct"": [false, true, true, true, true, false], ""trial_index"": 15}"
A13WFFPE9L1QAB:3G0WWMR1UVK137QHTAE4ZZPFY7PNQC,16,1495058784824,"{""rt"": 11260, ""trial_type"": ""instructions"", ""view_history"": ""[{\""page_index\"":0,\""viewing_time\"":5648},{\""page_index\"":1,\""viewing_time\"":1902},{\""page_index\"":2,\""viewing_time\"":2509},{\""page_index\"":3,\""viewing_time\"":1200}]"", ""internal_node_id"": ""0.0-0.8-0.8"", ""time_elapsed"": 1243341, ""trial_index"": 16}"
A13WFFPE9L1QAB:3G0WWMR1UVK137QHTAE4ZZPFY7PNQC,17,1495058806376,"{""rt"": 20504, ""trial_type"": ""survey-multi-choice"", ""responses"": ""[\""3\"",\""True\"",\""$2.80\"",\""As many or as few as I wish\"",\""5% of my score on a random round\"",\""All of the above.\""]"", ""internal_node_id"": ""0.0-0.8-1.8"", ""time_elapsed"": 1264894, ""questions"": ""[\""How many flights are there per round?\"",\""True or false: The hidden values will change each time I start a new round.\"",\""How much does it cost to observe each hidden value?\"",\""How many hidden values am I allowed to observe in each round?\"",\""How is your bonus determined?\"",\""What does the feedback teach you?\""]"", ""correct"": [true, true, true, true, true, true], ""trial_index"": 17}"
A13WFFPE9L1QAB:3G0WWMR1UVK137QHTAE4ZZPFY7PNQC,18,1495058866278,"{""rt"": [10324, 3169, 8], ""trial_type"": ""graph"", ""infoCost"": 2.8, ""feedback"": true, ""minTime"": 45, ""delays"": [-1, -1, -1], ""actionTimes"": [10325, 16535, 19512], ""time_elapsed"": 1324796, ""actions"": [""right"", ""right"", ""down""], ""trialIndex"": 1, ""score"": 2, ""trial_index"": 18, ""internal_node_id"": ""0.0-1.0-0.0"", ""clickTimes"": [], ""path"": [1, 2, 6, 11], ""trialID"": 1, ""clicks"": [], ""condition"": 8}"
A13WFFPE9L1QAB:3G0WWMR1UVK137QHTAE4ZZPFY7PNQC,19,1495058946822,"{""rt"": [17838, 1742, 480], ""trial_type"": ""graph"", ""infoCost"": 2.8, ""feedback"": true, ""minTime"": 45, ""delays"": [18, -1, -1], ""actionTimes"": [17838, 42104, 45329], ""time_elapsed"": 1405340, ""actions"": [""up"", ""up"", ""right""], ""trialIndex"": 2, ""score"": -5.4, ""trial_index"": 19, ""internal_node_id"": ""0.0-1.0-1.0"", ""clickTimes"": [11124, 13447, 15179], ""path"": [1, 3, 7, 13], ""trialID"": 7, ""clicks"": [""3"", ""4"", ""5""], ""condition"": 8}"
A13WFFPE9L1QAB:3G0WWMR1UVK137QHTAE4ZZPFY7PNQC,20,1495059016835,"{""rt"": [7200, 1494, 2174], ""trial_type"": ""graph"", ""infoCost"": 2.8, ""feedback"": true, ""minTime"": 45, ""delays"": [15, -5, -1], ""actionTimes"": [7200, 26375, 31629], ""time_elapsed"": 1475352, ""actions"": [""right"", ""right"", ""up""], ""trialIndex"": 3, ""score"": 7.6, ""trial_index"": 20, ""internal_node_id"": ""0.0-1.0-2.0"", ""clickTimes"": [2495, 3351, 29463], ""path"": [1, 2, 6, 10], ""trialID"": 6, ""clicks"": [""2"", ""6"", ""10""], ""condition"": 8}"
A13WFFPE9L1QAB:3G0WWMR1UVK137QHTAE4ZZPFY7PNQC,21,1495059083973,"{""rt"": [15381, 6, 4579], ""trial_type"": ""graph"", ""infoCost"": 2.8, ""feedback"": true, ""minTime"": 45, ""delays"": [-6, -1, -31], ""actionTimes"": [15381, 20046, 27672], ""time_elapsed"": 1542491, ""actions"": [""left"", ""left"", ""up""], ""trialIndex"": 4, ""score"": 20, ""trial_index"": 21, ""internal_node_id"": ""0.0-1.0-3.0"", ""clickTimes"": [3386, 4631, 8980, 9788, 25562], ""path"": [1, 4, 8, 14], ""trialID"": 5, ""clicks"": [""5"", ""9"", ""4"", ""8"", ""15""], ""condition"": 8}"
A13WFFPE9L1QAB:3G0WWMR1UVK137QHTAE4ZZPFY7PNQC,22,1495059165217,"{""rt"": [11873, 1448, 2441], ""trial_type"": ""graph"", ""infoCost"": 2.8, ""feedback"": true, ""minTime"": 45, ""delays"": [13, -1, 12], ""actionTimes"": [11873, 31217, 36461], ""time_elapsed"": 1623735, ""actions"": [""up"", ""up"", ""right""], ""trialIndex"": 5, ""score"": -1.8, ""trial_index"": 22, ""internal_node_id"": ""0.0-1.0-4.0"", ""clickTimes"": [3180, 4345, 6723, 7669, 34024, 34904], ""path"": [1, 3, 7, 13], ""trialID"": 0, ""clicks"": [""3"", ""7"", ""2"", ""6"", ""13"", ""12""], ""condition"": 8}"
A13WFFPE9L1QAB:3G0WWMR1UVK137QHTAE4ZZPFY7PNQC,23,1495059251758,"{""rt"": [11343, 1477, 2804], ""trial_type"": ""graph"", ""infoCost"": 2.8, ""feedback"": true, ""minTime"": 45, ""delays"": [31, -3, -25], ""actionTimes"": [11344, 47973, 53795], ""time_elapsed"": 1710276, ""actions"": [""right"", ""right"", ""up""], ""trialIndex"": 6, ""score"": 8, ""trial_index"": 23, ""internal_node_id"": ""0.0-1.0-5.0"", ""clickTimes"": [2538, 3316, 4746, 5777, 9158], ""path"": [1, 2, 6, 10], ""trialID"": 4, ""clicks"": [""2"", ""6"", ""3"", ""7"", ""10""], ""condition"": 8}"
A13WFFPE9L1QAB:3G0WWMR1UVK137QHTAE4ZZPFY7PNQC,24,1495059307276,"{""rt"": [7542, 60, 1841], ""trial_type"": ""graph"", ""infoCost"": 2.8, ""feedback"": true, ""minTime"": 45, ""delays"": [-27, -4, -27], ""actionTimes"": [7543, 12404, 17311], ""time_elapsed"": 1765793, ""actions"": [""left"", ""left"", ""down""], ""trialIndex"": 7, ""score"": -6, ""trial_index"": 24, ""internal_node_id"": ""0.0-1.0-6.0"", ""clickTimes"": [2225, 3218, 5109, 5764, 15478], ""path"": [1, 4, 8, 15], ""trialID"": 2, ""clicks"": [""5"", ""9"", ""4"", ""8"", ""14""], ""condition"": 8}"
A13WFFPE9L1QAB:3G0WWMR1UVK137QHTAE4ZZPFY7PNQC,25,1495059367844,"{""rt"": [6678, 8, 4670], ""trial_type"": ""graph"", ""infoCost"": 2.8, ""feedback"": true, ""minTime"": 45, ""delays"": [-6, -2, 5], ""actionTimes"": [6679, 11388, 19213], ""time_elapsed"": 1826361, ""actions"": [""down"", ""down"", ""left""], ""trialIndex"": 8, ""score"": -5.2, ""trial_index"": 25, ""internal_node_id"": ""0.0-1.0-7.0"", ""clickTimes"": [2519, 4245, 5304, 17831], ""path"": [1, 5, 9, 16], ""trialID"": 3, ""clicks"": [""4"", ""5"", ""9"", ""17""], ""condition"": 8}"
A13WFFPE9L1QAB:3G0WWMR1UVK137QHTAE4ZZPFY7PNQC,26,1495059385270,"{""rt"": 16389, ""trial_type"": ""button-response"", ""button_pressed"": 0, ""stimulus"": ""<h1 id=\""thiscompletesthehit\"">This completes the HIT</h1>\n\n<p>One or your trials has been randomly selected and we will pay you 5% of your profit on that trial as a bonus. You will be awarded a bonus of $0.38</p>"", ""internal_node_id"": ""0.0-2.0"", ""time_elapsed"": 1843787, ""trial_index"": 26}"
A14VY6QXKBLC0D:32M8BPYGATMICHLCTYW00DPW6LMGIU,0,1495059475774,"{""rt"": 191899, ""trial_type"": ""instructions"", ""view_history"": ""[{\""page_index\"":0,\""viewing_time\"":83933},{\""page_index\"":1,\""viewing_time\"":39246},{\""page_index\"":2,\""viewing_time\"":45698},{\""page_index\"":3,\""viewing_time\"":23022}]"", ""internal_node_id"": ""0.0-0.0-0.0"", ""time_elapsed"": 191901, ""trial_index"": 0}"
A14VY6QXKBLC0D:32M8BPYGATMICHLCTYW00DPW6LMGIU,1,1495059597143,"{""rt"": 117810, ""trial_type"": ""survey-multi-choice"", ""responses"": ""[\""1\"",\""True\"",\""$1.60\"",\""As many or as few as I wish\"",\""5% of my score on a random round\"",\""All of the above.\""]"", ""internal_node_id"": ""0.0-0.0-1.0"", ""time_elapsed"": 313269, ""questions"": ""[\""How many flights are there per round?\"",\""True or false: The hidden values will change each time I start a new round.\"",\""How much does it cost to observe each hidden value?\"",\""How many hidden values am I allowed to observe in each round?\"",\""How is your bonus determined?\"",\""What does the feedback teach you?\""]"", ""correct"": [false, true, true, true, true, true], ""trial_index"": 1}"
A14VY6QXKBLC0D:32M8BPYGATMICHLCTYW00DPW6LMGIU,2,1495059631528,"{""rt"": 33375, ""trial_type"": ""instructions"", ""view_history"": ""[{\""page_index\"":0,\""viewing_time\"":21440},{\""page_index\"":1,\""viewing_time\"":4428},{\""page_index\"":2,\""viewing_time\"":5581},{\""page_index\"":3,\""viewing_time\"":1926}]"", ""internal_node_id"": ""0.0-0.1-0.1"", ""time_elapsed"": 347655, ""trial_index"": 2}"
A14VY6QXKBLC0D:32M8BPYGATMICHLCTYW00DPW6LMGIU,3,1495059702904,"{""rt"": 70342, ""trial_type"": ""survey-multi-choice"", ""responses"": ""[\""3\"",\""True\"",\""$1.60\"",\""As many or as few as I wish\"",\""5% of my score on a random round\"",\""All of the above.\""]"", ""internal_node_id"": ""0.0-0.1-1.1"", ""time_elapsed"": 419031, ""questions"": ""[\""How many flights are there per round?\"",\""True or false: The hidden values will change each time I start a new round.\"",\""How much does it cost to observe each hidden value?\"",\""How many hidden values am I allowed to observe in each round?\"",\""How is your bonus determined?\"",\""What does the feedback teach you?\""]"", ""correct"": [true, true, true, true, true, true], ""trial_index"": 3}"
A14VY6QXKBLC0D:32M8BPYGATMICHLCTYW00DPW6LMGIU,4,1495059752528,"{""rt"": [10948, 1, 361], ""trial_type"": ""graph"", ""infoCost"": 1.6, ""feedback"": true, ""minTime"": 45, ""delays"": [-14, -4, -6], ""actionTimes"": [10949, 12087, 13388], ""time_elapsed"": 468654, ""actions"": [""right"", ""right"", ""up""], ""trialIndex"": 1, ""score"": 30.8, ""trial_index"": 4, ""internal_node_id"": ""0.0-1.0-0.0"", ""clickTimes"": [3548, 9116], ""path"": [1, 2, 6, 10], ""trialID"": 2, ""clicks"": [""10"", ""15""], ""condition"": 4}"
A14VY6QXKBLC0D:32M8BPYGATMICHLCTYW00DPW6LMGIU,5,1495059801435,"{""rt"": [17508, 1, 1], ""trial_type"": ""graph"", ""infoCost"": 1.6, ""feedback"": true, ""minTime"": 45, ""delays"": [-5, -4, 0], ""actionTimes"": [17508, 18433, 19315], ""time_elapsed"": 517562, ""actions"": [""up"", ""up"", ""left""], ""trialIndex"": 2, ""score"": 24.2, ""trial_index"": 5, ""internal_node_id"": ""0.0-1.0-1.0"", ""clickTimes"": [2063, 3770, 6939, 8723, 10405, 11995, 14320, 15770], ""path"": [1, 3, 7, 12], ""trialID"": 6, ""clicks"": [""13"", ""14"", ""10"", ""11"", ""16"", ""17"", ""15"", ""12""], ""condition"": 4}"
A14VY6QXKBLC0D:32M8BPYGATMICHLCTYW00DPW6LMGIU,6,1495059848970,"{""rt"": [11889, 1, 366], ""trial_type"": ""graph"", ""infoCost"": 1.6, ""feedback"": true, ""minTime"": 45, ""delays"": [-9, -4, -2], ""actionTimes"": [11889, 12945, 14277], ""time_elapsed"": 565096, ""actions"": [""up"", ""up"", ""left""], ""trialIndex"": 3, ""score"": 15, ""trial_index"": 6, ""internal_node_id"": ""0.0-1.0-2.0"", ""clickTimes"": [2199, 3508, 5986, 7708, 8926], ""path"": [1, 3, 7, 12], ""trialID"": 4, ""clicks"": [""11"", ""10"", ""15"", ""14"", ""12""], ""condition"": 4}"
A14VY6QXKBLC0D:32M8BPYGATMICHLCTYW00DPW6LMGIU,7,1495059896494,"{""rt"": [10558, 2, 552], ""trial_type"": ""graph"", ""infoCost"": 1.6, ""feedback"": true, ""minTime"": 45, ""delays"": [-14, -4, -2], ""actionTimes"": [10558, 11654, 13172], ""time_elapsed"": 612621, ""actions"": [""left"", ""left"", ""up""], ""trialIndex"": 4, ""score"": 30.4, ""trial_index"": 7, ""internal_node_id"": ""0.0-1.0-3.0"", ""clickTimes"": [1735, 3285, 5136, 6264, 7574, 8859], ""path"": [1, 4, 8, 14], ""trialID"": 0, ""clicks"": [""16"", ""17"", ""13"", ""10"", ""11"", ""14""], ""condition"": 4}"
A14VY6QXKBLC0D:32M8BPYGATMICHLCTYW00DPW6LMGIU,8,1495059945812,"{""rt"": [18782, 1, 118], ""trial_type"": ""graph"", ""infoCost"": 1.6, ""feedback"": true, ""minTime"": 45, ""delays"": [-10, 0, 0], ""actionTimes"": [18782, 19742, 20814], ""time_elapsed"": 661939, ""actions"": [""down"", ""down"", ""left""], ""trialIndex"": 5, ""score"": 33.2, ""trial_index"": 8, ""internal_node_id"": ""0.0-1.0-4.0"", ""clickTimes"": [1505, 2764, 4253, 6999, 9284, 11248, 12544, 17114], ""path"": [1, 5, 9, 16], ""trialID"": 1, ""clicks"": [""14"", ""15"", ""17"", ""11"", ""10"", ""12"", ""13"", ""16""], ""condition"": 4}"
A14VY6QXKBLC0D:32M8BPYGATMICHLCTYW00DPW6LMGIU,9,1495059994141,"{""rt"": [7829, 1, 237], ""trial_type"": ""graph"", ""infoCost"": 1.6, ""feedback"": true, ""minTime"": 45, ""delays"": [-11, -4, -2], ""actionTimes"": [7829, 9049, 10241], ""time_elapsed"": 710268, ""actions"": [""left"", ""left"", ""up""], ""trialIndex"": 6, ""score"": 27.6, ""trial_index"": 9, ""internal_node_id"": ""0.0-1.0-5.0"", ""clickTimes"": [1219, 3120, 4980, 6404], ""path"": [1, 4, 8, 14], ""trialID"": 5, ""clicks"": [""13"", ""11"", ""16"", ""14""], ""condition"": 4}"
A14VY6QXKBLC0D:32M8BPYGATMICHLCTYW00DPW6LMGIU,10,1495060041150,"{""rt"": [5499, 2, 245], ""trial_type"": ""graph"", ""infoCost"": 1.6, ""feedback"": true, ""minTime"": 45, ""delays"": [-17, -4, 0], ""actionTimes"": [5500, 6534, 7685], ""time_elapsed"": 757277, ""actions"": [""right"", ""right"", ""up""], ""trialIndex"": 7, ""score"": 29.2, ""trial_index"": 10, ""internal_node_id"": ""0.0-1.0-6.0"", ""clickTimes"": [1007, 2471, 3718], ""path"": [1, 2, 6, 10], ""trialID"": 3, ""clicks"": [""12"", ""11"", ""10""], ""condition"": 4}"
A14VY6QXKBLC0D:32M8BPYGATMICHLCTYW00DPW6LMGIU,11,1495060089371,"{""rt"": [12085, 1, 216], ""trial_type"": ""graph"", ""infoCost"": 1.6, ""feedback"": true, ""minTime"": 45, ""delays"": [-8, -4, -2], ""actionTimes"": [12085, 13165, 14323], ""time_elapsed"": 805498, ""actions"": [""left"", ""left"", ""up""], ""trialIndex"": 8, ""score"": 6.8, ""trial_index"": 11, ""internal_node_id"": ""0.0-1.0-7.0"", ""clickTimes"": [1141, 3208, 5581, 6955, 8663, 10139, 36452], ""path"": [1, 4, 8, 14], ""trialID"": 7, ""clicks"": [""12"", ""10"", ""17"", ""16"", ""11"", ""14"", ""15""], ""condition"": 4}"
A14VY6QXKBLC0D:32M8BPYGATMICHLCTYW00DPW6LMGIU,12,1495060094317,"{""rt"": 3918, ""trial_type"": ""button-response"", ""button_pressed"": 0, ""stimulus"": ""<h1 id=\""thiscompletesthehit\"">This completes the HIT</h1>\n\n<p>One or your trials has been randomly selected and we will pay you 5% of your profit on that trial as a bonus. You will be awarded a bonus of $1.38</p>"", ""internal_node_id"": ""0.0-2.0"", ""time_elapsed"": 810444, ""trial_index"": 12}"
A17PAQSQ74L915:3ERET4BTVM9U32OSFVB2LCIMUCF9K6,0,1495053694965,"{""rt"": 169959, ""trial_type"": ""instructions"", ""view_history"": ""[{\""page_index\"":0,\""viewing_time\"":141706},{\""page_index\"":1,\""viewing_time\"":17308},{\""page_index\"":2,\""viewing_time\"":10945}]"", ""internal_node_id"": ""0.0-0.0-0.0"", ""time_elapsed"": 169959, ""trial_index"": 0}"
A17PAQSQ74L915:3ERET4BTVM9U32OSFVB2LCIMUCF9K6,1,1495053716324,"{""rt"": 14993, ""trial_type"": ""survey-multi-choice"", ""responses"": ""[\""2\"",\""True\"",\""$1.60\"",\""As many or as few as I wish\"",\""5% of my score on a random round\""]"", ""internal_node_id"": ""0.0-0.0-1.0"", ""time_elapsed"": 191319, ""questions"": ""[\""How many flights are there per round?\"",\""True or false: The hidden values will change each time I start a new round.\"",\""How much does it cost to observe each hidden value?\"",\""How many hidden values am I allowed to observe in each round?\"",\""How is your bonus determined?\""]"", ""correct"": [false, true, true, true, true], ""trial_index"": 1}"
A17PAQSQ74L915:3ERET4BTVM9U32OSFVB2LCIMUCF9K6,2,1495053760013,"{""rt"": 42688, ""trial_type"": ""instructions"", ""view_history"": ""[{\""page_index\"":0,\""viewing_time\"":19000},{\""page_index\"":1,\""viewing_time\"":19776},{\""page_index\"":2,\""viewing_time\"":3911}]"", ""internal_node_id"": ""0.0-0.1-0.1"", ""time_elapsed"": 235008, ""trial_index"": 2}"
A17PAQSQ74L915:3ERET4BTVM9U32OSFVB2LCIMUCF9K6,3,1495053915324,"{""rt"": 145032, ""trial_type"": ""survey-multi-choice"", ""responses"": ""[\""2\"",\""True\"",\""$1.60\"",\""As many or as few as I wish\"",\""5% of my score on a random round\""]"", ""internal_node_id"": ""0.0-0.1-1.1"", ""time_elapsed"": 390318, ""questions"": ""[\""How many flights are there per round?\"",\""True or false: The hidden values will change each time I start a new round.\"",\""How much does it cost to observe each hidden value?\"",\""How many hidden values am I allowed to observe in each round?\"",\""How is your bonus determined?\""]"", ""correct"": [false, true, true, true, true], ""trial_index"": 3}"
A17PAQSQ74L915:3ERET4BTVM9U32OSFVB2LCIMUCF9K6,4,1495053948720,"{""rt"": 32395, ""trial_type"": ""instructions"", ""view_history"": ""[{\""page_index\"":0,\""viewing_time\"":20129},{\""page_index\"":1,\""viewing_time\"":7710},{\""page_index\"":2,\""viewing_time\"":4555}]"", ""internal_node_id"": ""0.0-0.2-0.2"", ""time_elapsed"": 423715, ""trial_index"": 4}"
A17PAQSQ74L915:3ERET4BTVM9U32OSFVB2LCIMUCF9K6,5,1495053962994,"{""rt"": 13263, ""trial_type"": ""survey-multi-choice"", ""responses"": ""[\""3\"",\""True\"",\""$1.60\"",\""As many or as few as I wish\"",\""5% of my score on a random round\""]"", ""internal_node_id"": ""0.0-0.2-1.2"", ""time_elapsed"": 437989, ""questions"": ""[\""How many flights are there per round?\"",\""True or false: The hidden values will change each time I start a new round.\"",\""How much does it cost to observe each hidden value?\"",\""How many hidden values am I allowed to observe in each round?\"",\""How is your bonus determined?\""]"", ""correct"": [true, true, true, true, true], ""trial_index"": 5}"
A17PAQSQ74L915:3ERET4BTVM9U32OSFVB2LCIMUCF9K6,6,1495054020095,"{""rt"": [22190, 4603, 13669], ""trial_type"": ""graph"", ""infoCost"": 1.6, ""feedback"": true, ""minTime"": 45, ""delays"": [8, 0, 1], ""actionTimes"": [22190, 35533, 49895], ""time_elapsed"": 495090, ""actions"": [""right"", ""right"", ""up""], ""trialIndex"": 1, ""score"": 2.8, ""trial_index"": 6, ""internal_node_id"": ""0.0-1.0-0.0"", ""clickTimes"": [5120, 7128, 8777, 11922, 13179, 13906, 15522, 16558, 17155, 43162, 45469, 47137], ""path"": [1, 2, 6, 10], ""trialID"": 4, ""clicks"": [""3"", ""5"", ""4"", ""8"", ""14"", ""15"", ""10"", ""2"", ""6"", ""11"", ""13"", ""16""], ""condition"": 3}"
A17PAQSQ74L915:3ERET4BTVM9U32OSFVB2LCIMUCF9K6,7,1495054102819,"{""rt"": [10126, 7916, 14207], ""trial_type"": ""graph"", ""infoCost"": 1.6, ""feedback"": true, ""minTime"": 45, ""delays"": [8, 0, 1], ""actionTimes"": [10126, 26770, 41682], ""time_elapsed"": 577814, ""actions"": [""left"", ""left"", ""down""], ""trialIndex"": 2, ""score"": 20, ""trial_index"": 7, ""internal_node_id"": ""0.0-1.0-1.0"", ""clickTimes"": [3487, 4910, 6065, 6839, 7801], ""path"": [1, 4, 8, 15], ""trialID"": 6, ""clicks"": [""2"", ""4"", ""14"", ""15"", ""8""], ""condition"": 3}"
A17PAQSQ74L915:3ERET4BTVM9U32OSFVB2LCIMUCF9K6,8,1495054160465,"{""rt"": [12119, 19532, 1578], ""trial_type"": ""graph"", ""infoCost"": 1.6, ""feedback"": true, ""minTime"": 45, ""delays"": [8, 0, 1], ""actionTimes"": [12119, 40409, 42706], ""time_elapsed"": 635459, ""actions"": [""down"", ""down"", ""left""], ""trialIndex"": 3, ""score"": 33.2, ""trial_index"": 8, ""internal_node_id"": ""0.0-1.0-2.0"", ""clickTimes"": [2286, 3726, 4226, 6016, 6954, 7436, 9045, 9830], ""path"": [1, 5, 9, 16], ""trialID"": 1, ""clicks"": [""4"", ""2"", ""5"", ""3"", ""13"", ""12"", ""17"", ""16""], ""condition"": 3}"
A17PAQSQ74L915:3ERET4BTVM9U32OSFVB2LCIMUCF9K6,9,1495054245727,"{""rt"": [5806, 16682, 1322], ""trial_type"": ""graph"", ""infoCost"": 1.6, ""feedback"": true, ""minTime"": 45, ""delays"": [8, 0, 1], ""actionTimes"": [5806, 31252, 33310], ""time_elapsed"": 720722, ""actions"": [""right"", ""right"", ""up""], ""trialIndex"": 4, ""score"": 15.6, ""trial_index"": 9, ""internal_node_id"": ""0.0-1.0-3.0"", ""clickTimes"": [1500, 2685, 3958, 30045], ""path"": [1, 2, 6, 10], ""trialID"": 7, ""clicks"": [""2"", ""10"", ""11"", ""6""], ""condition"": 3}"
A17PAQSQ74L915:3ERET4BTVM9U32OSFVB2LCIMUCF9K6,10,1495054302825,"{""rt"": [13121, 1935, 9875], ""trial_type"": ""graph"", ""infoCost"": 1.6, ""feedback"": true, ""minTime"": 45, ""delays"": [8, 0, 1], ""actionTimes"": [13122, 23885, 34500], ""time_elapsed"": 777819, ""actions"": [""right"", ""right"", ""up""], ""trialIndex"": 5, ""score"": 30.8, ""trial_index"": 10, ""internal_node_id"": ""0.0-1.0-4.0"", ""clickTimes"": [1921, 2835], ""path"": [1, 2, 6, 10], ""trialID"": 3, ""clicks"": [""2"", ""10""], ""condition"": 3}"
A17PAQSQ74L915:3ERET4BTVM9U32OSFVB2LCIMUCF9K6,11,1495054388425,"{""rt"": [8209, 6566, 339], ""trial_type"": ""graph"", ""infoCost"": 1.6, ""feedback"": true, ""minTime"": 45, ""delays"": [8, 0, 1], ""actionTimes"": [8209, 23591, 24673], ""time_elapsed"": 863420, ""actions"": [""right"", ""right"", ""up""], ""trialIndex"": 6, ""score"": 26, ""trial_index"": 11, ""internal_node_id"": ""0.0-1.0-5.0"", ""clickTimes"": [1606, 2433, 4217, 4925, 7224], ""path"": [1, 2, 6, 10], ""trialID"": 2, ""clicks"": [""2"", ""10"", ""4"", ""14"", ""15""], ""condition"": 3}"
A17PAQSQ74L915:3ERET4BTVM9U32OSFVB2LCIMUCF9K6,12,1495054446053,"{""rt"": [6141, 23097, 142], ""trial_type"": ""graph"", ""infoCost"": 1.6, ""feedback"": true, ""minTime"": 45, ""delays"": [8, 0, 1], ""actionTimes"": [6141, 38042, 38975], ""time_elapsed"": 921048, ""actions"": [""left"", ""left"", ""up""], ""trialIndex"": 7, ""score"": 26, ""trial_index"": 12, ""internal_node_id"": ""0.0-1.0-6.0"", ""clickTimes"": [1113, 1774, 2636, 4409, 5126], ""path"": [1, 4, 8, 14], ""trialID"": 5, ""clicks"": [""2"", ""10"", ""11"", ""4"", ""14""], ""condition"": 3}"
A17PAQSQ74L915:3ERET4BTVM9U32OSFVB2LCIMUCF9K6,13,1495054503572,"{""rt"": [21058, 13242, 994], ""trial_type"": ""graph"", ""infoCost"": 1.6, ""feedback"": true, ""minTime"": 45, ""delays"": [8, 0, 1], ""actionTimes"": [21058, 43113, 44856], ""time_elapsed"": 978567, ""actions"": [""left"", ""left"", ""up""], ""trialIndex"": 8, ""score"": 35.2, ""trial_index"": 13, ""internal_node_id"": ""0.0-1.0-7.0"", ""clickTimes"": [17917, 18435, 19181], ""path"": [1, 4, 8, 14], ""trialID"": 0, ""clicks"": [""2"", ""4"", ""14""], ""condition"": 3}"
A17PAQSQ74L915:3ERET4BTVM9U32OSFVB2LCIMUCF9K6,14,1495054508519,"{""rt"": 3939, ""trial_type"": ""button-response"", ""button_pressed"": 0, ""stimulus"": ""<h1 id=\""thiscompletesthehit\"">This completes the HIT</h1>\n\n<p>One or your trials has been randomly selected and we will pay you 5% of your profit on that trial as a bonus. You will be awarded a bonus of $1.66</p>"", ""internal_node_id"": ""0.0-2.0"", ""time_elapsed"": 983514, ""trial_index"": 14}"
A192MH226Q1NT4:3D3VGR7TA0FUB4C7O6JPVB1EPC03RD,0,1495055792573,"{""rt"": 152445, ""trial_type"": ""instructions"", ""view_history"": ""[{\""page_index\"":0,\""viewing_time\"":27931},{\""page_index\"":1,\""viewing_time\"":19668},{\""page_index\"":2,\""viewing_time\"":97521},{\""page_index\"":3,\""viewing_time\"":7323}]"", ""internal_node_id"": ""0.0-0.0-0.0"", ""time_elapsed"": 152445, ""trial_index"": 0}"
A192MH226Q1NT4:3D3VGR7TA0FUB4C7O6JPVB1EPC03RD,1,1495055827852,"{""rt"": 32088, ""trial_type"": ""survey-multi-choice"", ""responses"": ""[\""1\"",\""False\"",\""$2.80\"",\""As many or as few as I wish\"",\""5% of my score on a random round\"",\""Whether I chose the move that was best according to the information I had.\""]"", ""internal_node_id"": ""0.0-0.0-1.0"", ""time_elapsed"": 187725, ""questions"": ""[\""How many flights are there per round?\"",\""True or false: The hidden values will change each time I start a new round.\"",\""How much does it cost to observe each hidden value?\"",\""How many hidden values am I allowed to observe in each round?\"",\""How is your bonus determined?\"",\""What does the feedback teach you?\""]"", ""correct"": [false, false, true, true, true, false], ""trial_index"": 1}"
A192MH226Q1NT4:3D3VGR7TA0FUB4C7O6JPVB1EPC03RD,2,1495055870506,"{""rt"": 41651, ""trial_type"": ""instructions"", ""view_history"": ""[{\""page_index\"":0,\""viewing_time\"":10485},{\""page_index\"":1,\""viewing_time\"":5855},{\""page_index\"":2,\""viewing_time\"":21024},{\""page_index\"":3,\""viewing_time\"":4286}]"", ""internal_node_id"": ""0.0-0.1-0.1"", ""time_elapsed"": 230379, ""trial_index"": 2}"
A192MH226Q1NT4:3D3VGR7TA0FUB4C7O6JPVB1EPC03RD,3,1495055895307,"{""rt"": 21579, ""trial_type"": ""survey-multi-choice"", ""responses"": ""[\""1\"",\""True\"",\""$2.80\"",\""As many or as few as I wish\"",\""5% of my score on a random round\"",\""Whether I observed the rewards of relevant locations.\""]"", ""internal_node_id"": ""0.0-0.1-1.1"", ""time_elapsed"": 255180, ""questions"": ""[\""How many flights are there per round?\"",\""True or false: The hidden values will change each time I start a new round.\"",\""How much does it cost to observe each hidden value?\"",\""How many hidden values am I allowed to observe in each round?\"",\""How is your bonus determined?\"",\""What does the feedback teach you?\""]"", ""correct"": [false, true, true, true, true, false], ""trial_index"": 3}"
A192MH226Q1NT4:3D3VGR7TA0FUB4C7O6JPVB1EPC03RD,4,1495055919657,"{""rt"": 23348, ""trial_type"": ""instructions"", ""view_history"": ""[{\""page_index\"":0,\""viewing_time\"":13043},{\""page_index\"":1,\""viewing_time\"":1408},{\""page_index\"":2,\""viewing_time\"":7060},{\""page_index\"":3,\""viewing_time\"":1836}]"", ""internal_node_id"": ""0.0-0.2-0.2"", ""time_elapsed"": 279530, ""trial_index"": 4}"
A192MH226Q1NT4:3D3VGR7TA0FUB4C7O6JPVB1EPC03RD,5,1495055933500,"{""rt"": 10181, ""trial_type"": ""survey-multi-choice"", ""responses"": ""[\""2\"",\""True\"",\""$2.80\"",\""As many or as few as I wish\"",\""5% of my score on a random round\"",\""Whether I observed the rewards of relevant locations.\""]"", ""internal_node_id"": ""0.0-0.2-1.2"", ""time_elapsed"": 293373, ""questions"": ""[\""How many flights are there per round?\"",\""True or false: The hidden values will change each time I start a new round.\"",\""How much does it cost to observe each hidden value?\"",\""How many hidden values am I allowed to observe in each round?\"",\""How is your bonus determined?\"",\""What does the feedback teach you?\""]"", ""correct"": [false, true, true, true, true, false], ""trial_index"": 5}"
A192MH226Q1NT4:3D3VGR7TA0FUB4C7O6JPVB1EPC03RD,6,1495055963807,"{""rt"": 29306, ""trial_type"": ""instructions"", ""view_history"": ""[{\""page_index\"":0,\""viewing_time\"":3004},{\""page_index\"":1,\""viewing_time\"":12388},{\""page_index\"":2,\""viewing_time\"":8948},{\""page_index\"":3,\""viewing_time\"":4966}]"", ""internal_node_id"": ""0.0-0.3-0.3"", ""time_elapsed"": 323680, ""trial_index"": 6}"
A192MH226Q1NT4:3D3VGR7TA0FUB4C7O6JPVB1EPC03RD,7,1495055979885,"{""rt"": 13593, ""trial_type"": ""survey-multi-choice"", ""responses"": ""[\""2\"",\""True\"",\""$2.80\"",\""As many or as few as I wish\"",\""5% of my score on a random round\"",\""All of the above.\""]"", ""internal_node_id"": ""0.0-0.3-1.3"", ""time_elapsed"": 339758, ""questions"": ""[\""How many flights are there per round?\"",\""True or false: The hidden values will change each time I start a new round.\"",\""How much does it cost to observe each hidden value?\"",\""How many hidden values am I allowed to observe in each round?\"",\""How is your bonus determined?\"",\""What does the feedback teach you?\""]"", ""correct"": [false, true, true, true, true, true], ""trial_index"": 7}"
A192MH226Q1NT4:3D3VGR7TA0FUB4C7O6JPVB1EPC03RD,8,1495056010110,"{""rt"": 29223, ""trial_type"": ""instructions"", ""view_history"": ""[{\""page_index\"":0,\""viewing_time\"":10033},{\""page_index\"":1,\""viewing_time\"":2658},{\""page_index\"":0,\""viewing_time\"":7104},{\""page_index\"":1,\""viewing_time\"":5689},{\""page_index\"":2,\""viewing_time\"":2070},{\""page_index\"":3,\""viewing_time\"":1668}]"", ""internal_node_id"": ""0.0-0.4-0.4"", ""time_elapsed"": 369983, ""trial_index"": 8}"
A192MH226Q1NT4:3D3VGR7TA0FUB4C7O6JPVB1EPC03RD,9,1495056028857,"{""rt"": 16501, ""trial_type"": ""survey-multi-choice"", ""responses"": ""[\""3\"",\""True\"",\""$2.80\"",\""As many or as few as I wish\"",\""5% of my score on a random round\"",\""Whether I observed the rewards of relevant locations.\""]"", ""internal_node_id"": ""0.0-0.4-1.4"", ""time_elapsed"": 388729, ""questions"": ""[\""How many flights are there per round?\"",\""True or false: The hidden values will change each time I start a new round.\"",\""How much does it cost to observe each hidden value?\"",\""How many hidden values am I allowed to observe in each round?\"",\""How is your bonus determined?\"",\""What does the feedback teach you?\""]"", ""correct"": [true, true, true, true, true, false], ""trial_index"": 9}"
A192MH226Q1NT4:3D3VGR7TA0FUB4C7O6JPVB1EPC03RD,10,1495056035995,"{""rt"": 6137, ""trial_type"": ""instructions"", ""view_history"": ""[{\""page_index\"":0,\""viewing_time\"":2125},{\""page_index\"":1,\""viewing_time\"":1006},{\""page_index\"":2,\""viewing_time\"":1758},{\""page_index\"":3,\""viewing_time\"":1248}]"", ""internal_node_id"": ""0.0-0.5-0.5"", ""time_elapsed"": 395868, ""trial_index"": 10}"
A192MH226Q1NT4:3D3VGR7TA0FUB4C7O6JPVB1EPC03RD,11,1495056046726,"{""rt"": 8323, ""trial_type"": ""survey-multi-choice"", ""responses"": ""[\""4\"",\""True\"",\""$2.80\"",\""As many or as few as I wish\"",\""5% of my score on a random round\"",\""Whether I observed the rewards of relevant locations.\""]"", ""internal_node_id"": ""0.0-0.5-1.5"", ""time_elapsed"": 406599, ""questions"": ""[\""How many flights are there per round?\"",\""True or false: The hidden values will change each time I start a new round.\"",\""How much does it cost to observe each hidden value?\"",\""How many hidden values am I allowed to observe in each round?\"",\""How is your bonus determined?\"",\""What does the feedback teach you?\""]"", ""correct"": [false, true, true, true, true, false], ""trial_index"": 11}"
A192MH226Q1NT4:3D3VGR7TA0FUB4C7O6JPVB1EPC03RD,12,1495056081764,"{""rt"": 34034, ""trial_type"": ""instructions"", ""view_history"": ""[{\""page_index\"":0,\""viewing_time\"":29812},{\""page_index\"":1,\""viewing_time\"":1167},{\""page_index\"":2,\""viewing_time\"":1896},{\""page_index\"":3,\""viewing_time\"":1159}]"", ""internal_node_id"": ""0.0-0.6-0.6"", ""time_elapsed"": 441637, ""trial_index"": 12}"
A192MH226Q1NT4:3D3VGR7TA0FUB4C7O6JPVB1EPC03RD,13,1495056094476,"{""rt"": 11694, ""trial_type"": ""survey-multi-choice"", ""responses"": ""[\""3\"",\""True\"",\""$2.80\"",\""As many or as few as I wish\"",\""5% of my score on a random round\"",\""All of the above.\""]"", ""internal_node_id"": ""0.0-0.6-1.6"", ""time_elapsed"": 454349, ""questions"": ""[\""How many flights are there per round?\"",\""True or false: The hidden values will change each time I start a new round.\"",\""How much does it cost to observe each hidden value?\"",\""How many hidden values am I allowed to observe in each round?\"",\""How is your bonus determined?\"",\""What does the feedback teach you?\""]"", ""correct"": [true, true, true, true, true, true], ""trial_index"": 13}"
A1C6NTK19FBQO0:3TY7ZAOG5FKC780FFZS9S1HTR8LK05,0,1495055105901,"{""rt"": 8109, ""trial_type"": ""instructions"", ""view_history"": ""[{\""page_index\"":0,\""viewing_time\"":1836},{\""page_index\"":1,\""viewing_time\"":2579},{\""page_index\"":0,\""viewing_time\"":1531},{\""page_index\"":1,\""viewing_time\"":652},{\""page_index\"":2,\""viewing_time\"":1510}]"", ""internal_node_id"": ""0.0-0.0-0.0"", ""time_elapsed"": 8110, ""trial_index"": 0}"
A1C6NTK19FBQO0:3TY7ZAOG5FKC780FFZS9S1HTR8LK05,1,1495055113574,"{""rt"": 6660, ""trial_type"": ""survey-multi-choice"", ""responses"": ""[\""3\"",\""True\"",\""$2.80\"",\""As many or as few as I wish\"",\""5% of my score on a random round\""]"", ""internal_node_id"": ""0.0-0.0-1.0"", ""time_elapsed"": 15783, ""questions"": ""[\""How many flights are there per round?\"",\""True or false: The hidden values will change each time I start a new round.\"",\""How much does it cost to observe each hidden value?\"",\""How many hidden values am I allowed to observe in each round?\"",\""How is your bonus determined?\""]"", ""correct"": [true, true, true, true, true], ""trial_index"": 1}"
A1C6NTK19FBQO0:3TY7ZAOG5FKC780FFZS9S1HTR8LK05,2,1495055174769,"{""rt"": [1490, 1905, 1177], ""trial_type"": ""graph"", ""infoCost"": 2.8, ""feedback"": true, ""minTime"": 45, ""delays"": [8, 0, 1], ""actionTimes"": [1490, 12170, 14169], ""time_elapsed"": 76978, ""actions"": [""right"", ""right"", ""up""], ""trialIndex"": 1, ""score"": 13.6, ""trial_index"": 2, ""internal_node_id"": ""0.0-1.0-0.0"", ""clickTimes"": [11608, 13251, 13687], ""path"": [1, 2, 6, 10], ""trialID"": 4, ""clicks"": [""6"", ""10"", ""11""], ""condition"": 6}"
A1C6NTK19FBQO0:3TY7ZAOG5FKC780FFZS9S1HTR8LK05,3,1495055231498,"{""rt"": [12644, 6770, 1106], ""trial_type"": ""graph"", ""infoCost"": 2.8, ""feedback"": true, ""minTime"": 45, ""delays"": [8, 0, 1], ""actionTimes"": [12644, 28244, 30181], ""time_elapsed"": 133707, ""actions"": [""up"", ""up"", ""right""], ""trialIndex"": 2, ""score"": -18.6, ""trial_index"": 3, ""internal_node_id"": ""0.0-1.0-1.0"", ""clickTimes"": [10825, 11251, 11671, 12185, 26920, 29077, 29454], ""path"": [1, 3, 7, 13], ""trialID"": 5, ""clicks"": [""2"", ""3"", ""4"", ""5"", ""7"", ""12"", ""13""], ""condition"": 6}"
A1C6NTK19FBQO0:3TY7ZAOG5FKC780FFZS9S1HTR8LK05,4,1495055290616,"{""rt"": [5604, 407, 841], ""trial_type"": ""graph"", ""infoCost"": 2.8, ""feedback"": true, ""minTime"": 45, ""delays"": [8, 0, 1], ""actionTimes"": [5604, 14932, 16587], ""time_elapsed"": 192825, ""actions"": [""up"", ""up"", ""left""], ""trialIndex"": 3, ""score"": -7, ""trial_index"": 4, ""internal_node_id"": ""0.0-1.0-2.0"", ""clickTimes"": [803, 1299, 1821, 2303, 2987, 3547, 4013, 4487, 15747, 16151], ""path"": [1, 3, 7, 12], ""trialID"": 1, ""clicks"": [""3"", ""4"", ""5"", ""2"", ""8"", ""6"", ""9"", ""7"", ""13"", ""12""], ""condition"": 6}"
A1C6NTK19FBQO0:3TY7ZAOG5FKC780FFZS9S1HTR8LK05,5,1495055348617,"{""rt"": [14448, 12190, 1119], ""trial_type"": ""graph"", ""infoCost"": 2.8, ""feedback"": true, ""minTime"": 45, ""delays"": [8, 0, 1], ""actionTimes"": [14449, 35241, 37090], ""time_elapsed"": 250826, ""actions"": [""up"", ""up"", ""left""], ""trialIndex"": 4, ""score"": -2.2, ""trial_index"": 5, ""internal_node_id"": ""0.0-1.0-3.0"", ""clickTimes"": [1725, 2248, 2775, 3149, 3669, 4221, 4875, 5567, 6281, 6771, 7657, 8147, 12197, 12907], ""path"": [1, 3, 7, 12], ""trialID"": 6, ""clicks"": [""2"", ""3"", ""4"", ""5"", ""9"", ""6"", ""8"", ""7"", ""11"", ""10"", ""15"", ""14"", ""12"", ""13""], ""condition"": 6}"
A1C6NTK19FBQO0:3TY7ZAOG5FKC780FFZS9S1HTR8LK05,6,1495055407257,"{""rt"": [11618, 21305, 416], ""trial_type"": ""graph"", ""infoCost"": 2.8, ""feedback"": true, ""minTime"": 45, ""delays"": [8, 0, 1], ""actionTimes"": [11618, 41442, 42515], ""time_elapsed"": 309466, ""actions"": [""left"", ""left"", ""up""], ""trialIndex"": 5, ""score"": -4.8, ""trial_index"": 6, ""internal_node_id"": ""0.0-1.0-4.0"", ""clickTimes"": [776, 1280, 1670, 2058, 3022, 3544, 4335, 5216, 5642, 6334, 8068, 8536, 9016, 9974, 10486, 10938], ""path"": [1, 4, 8, 14], ""trialID"": 0, ""clicks"": [""2"", ""3"", ""4"", ""5"", ""9"", ""16"", ""17"", ""7"", ""12"", ""13"", ""8"", ""14"", ""15"", ""6"", ""10"", ""11""], ""condition"": 6}"
A1C6NTK19FBQO0:3TY7ZAOG5FKC780FFZS9S1HTR8LK05,7,1495055463449,"{""rt"": [2085, 12115, 222], ""trial_type"": ""graph"", ""infoCost"": 2.8, ""feedback"": true, ""minTime"": 45, ""delays"": [8, 0, 1], ""actionTimes"": [2085, 23110, 24110], ""time_elapsed"": 365657, ""actions"": [""right"", ""right"", ""up""], ""trialIndex"": 6, ""score"": 25.6, ""trial_index"": 7, ""internal_node_id"": ""0.0-1.0-5.0"", ""clickTimes"": [909, 1283, 1677], ""path"": [1, 2, 6, 10], ""trialID"": 3, ""clicks"": [""2"", ""6"", ""10""], ""condition"": 6}"
A1C6NTK19FBQO0:3TY7ZAOG5FKC780FFZS9S1HTR8LK05,8,1495055519929,"{""rt"": [2783, 4037, 0], ""trial_type"": ""graph"", ""infoCost"": 2.8, ""feedback"": true, ""minTime"": 45, ""delays"": [8, 0, 1], ""actionTimes"": [2783, 15704, 16496], ""time_elapsed"": 422138, ""actions"": [""right"", ""right"", ""up""], ""trialIndex"": 7, ""score"": 25.6, ""trial_index"": 8, ""internal_node_id"": ""0.0-1.0-6.0"", ""clickTimes"": [991, 1829, 2335], ""path"": [1, 2, 6, 10], ""trialID"": 2, ""clicks"": [""2"", ""6"", ""10""], ""condition"": 6}"
A1C6NTK19FBQO0:3TY7ZAOG5FKC780FFZS9S1HTR8LK05,9,1495055576250,"{""rt"": [13002, 9685, 0], ""trial_type"": ""graph"", ""infoCost"": 2.8, ""feedback"": true, ""minTime"": 45, ""delays"": [8, 0, 1], ""actionTimes"": [13002, 31418, 32170], ""time_elapsed"": 478459, ""actions"": [""right"", ""right"", ""up""], ""trialIndex"": 8, ""score"": -14.4, ""trial_index"": 9, ""internal_node_id"": ""0.0-1.0-7.0"", ""clickTimes"": [1182, 1990, 2574, 3158, 3740, 4300, 5886, 6368, 6728, 7240, 7838, 8202, 11444], ""path"": [1, 2, 6, 10], ""trialID"": 7, ""clicks"": [""3"", ""7"", ""13"", ""12"", ""4"", ""8"", ""2"", ""6"", ""10"", ""11"", ""5"", ""9"", ""14""], ""condition"": 6}"
A1C6NTK19FBQO0:3TY7ZAOG5FKC780FFZS9S1HTR8LK05,10,1495055581687,"{""rt"": 4429, ""trial_type"": ""button-response"", ""button_pressed"": 0, ""stimulus"": ""<h1 id=\""thiscompletesthehit\"">This completes the HIT</h1>\n\n<p>One or your trials has been randomly selected and we will pay you 5% of your profit on that trial as a bonus. You will be awarded a bonus of $0.00</p>"", ""internal_node_id"": ""0.0-2.0"", ""time_elapsed"": 483896, ""trial_index"": 10}"
A1DJBDVXF6Z1KK:3TXMY6UCAEOIC3TQ4K5QJOV3Z3ACQI,0,1495053825125,"{""rt"": 22227, ""trial_type"": ""instructions"", ""view_history"": ""[{\""page_index\"":0,\""viewing_time\"":7536},{\""page_index\"":1,\""viewing_time\"":5616},{\""page_index\"":2,\""viewing_time\"":6289},{\""page_index\"":3,\""viewing_time\"":2784}]"", ""internal_node_id"": ""0.0-0.0-0.0"", ""time_elapsed"": 22230, ""trial_index"": 0}"
A1DJBDVXF6Z1KK:3TXMY6UCAEOIC3TQ4K5QJOV3Z3ACQI,1,1495053858128,"{""rt"": 28751, ""trial_type"": ""survey-multi-choice"", ""responses"": ""[\""4\"",\""True\"",\""$2.80\"",\""As many or as few as I wish\"",\""10% of my total score on all rounds\"",\""All of the above.\""]"", ""internal_node_id"": ""0.0-0.0-1.0"", ""time_elapsed"": 55233, ""questions"": ""[\""How many flights are there per round?\"",\""True or false: The hidden values will change each time I start a new round.\"",\""How much does it cost to observe each hidden value?\"",\""How many hidden values am I allowed to observe in each round?\"",\""How is your bonus determined?\"",\""What does the feedback teach you?\""]"", ""correct"": [false, true, true, true, false, true], ""trial_index"": 1}"
A1DJBDVXF6Z1KK:3TXMY6UCAEOIC3TQ4K5QJOV3Z3ACQI,2,1495053912151,"{""rt"": 53020, ""trial_type"": ""instructions"", ""view_history"": ""[{\""page_index\"":0,\""viewing_time\"":17196},{\""page_index\"":1,\""viewing_time\"":12072},{\""page_index\"":2,\""viewing_time\"":14072},{\""page_index\"":3,\""viewing_time\"":9680}]"", ""internal_node_id"": ""0.0-0.1-0.1"", ""time_elapsed"": 109257, ""trial_index"": 2}"
A1DJBDVXF6Z1KK:3TXMY6UCAEOIC3TQ4K5QJOV3Z3ACQI,3,1495053942226,"{""rt"": 27478, ""trial_type"": ""survey-multi-choice"", ""responses"": ""[\""2\"",\""True\"",\""$2.80\"",\""As many or as few as I wish\"",\""5% of my score on a random round\"",\""Whether I observed the rewards of relevant locations.\""]"", ""internal_node_id"": ""0.0-0.1-1.1"", ""time_elapsed"": 139332, ""questions"": ""[\""How many flights are there per round?\"",\""True or false: The hidden values will change each time I start a new round.\"",\""How much does it cost to observe each hidden value?\"",\""How many hidden values am I allowed to observe in each round?\"",\""How is your bonus determined?\"",\""What does the feedback teach you?\""]"", ""correct"": [false, true, true, true, true, false], ""trial_index"": 3}"
A1DJBDVXF6Z1KK:3TXMY6UCAEOIC3TQ4K5QJOV3Z3ACQI,4,1495053984055,"{""rt"": 40827, ""trial_type"": ""instructions"", ""view_history"": ""[{\""page_index\"":0,\""viewing_time\"":17347},{\""page_index\"":1,\""viewing_time\"":4945},{\""page_index\"":2,\""viewing_time\"":16684},{\""page_index\"":3,\""viewing_time\"":1851}]"", ""internal_node_id"": ""0.0-0.2-0.2"", ""time_elapsed"": 181161, ""trial_index"": 4}"
A1DJBDVXF6Z1KK:3TXMY6UCAEOIC3TQ4K5QJOV3Z3ACQI,5,1495054001796,"{""rt"": 14723, ""trial_type"": ""survey-multi-choice"", ""responses"": ""[\""2\"",\""True\"",\""$2.80\"",\""As many or as few as I wish\"",\""5% of my score on a random round\"",\""All of the above.\""]"", ""internal_node_id"": ""0.0-0.2-1.2"", ""time_elapsed"": 198902, ""questions"": ""[\""How many flights are there per round?\"",\""True or false: The hidden values will change each time I start a new round.\"",\""How much does it cost to observe each hidden value?\"",\""How many hidden values am I allowed to observe in each round?\"",\""How is your bonus determined?\"",\""What does the feedback teach you?\""]"", ""correct"": [false, true, true, true, true, true], ""trial_index"": 5}"
A1DJBDVXF6Z1KK:3TXMY6UCAEOIC3TQ4K5QJOV3Z3ACQI,6,1495054056725,"{""rt"": 53927, ""trial_type"": ""instructions"", ""view_history"": ""[{\""page_index\"":0,\""viewing_time\"":19642},{\""page_index\"":1,\""viewing_time\"":10760},{\""page_index\"":2,\""viewing_time\"":13874},{\""page_index\"":3,\""viewing_time\"":9649}]"", ""internal_node_id"": ""0.0-0.3-0.3"", ""time_elapsed"": 253831, ""trial_index"": 6}"
A1DJBDVXF6Z1KK:3TXMY6UCAEOIC3TQ4K5QJOV3Z3ACQI,7,1495054100137,"{""rt"": 40602, ""trial_type"": ""survey-multi-choice"", ""responses"": ""[\""2\"",\""True\"",\""$2.80\"",\""As many or as few as I wish\"",\""5% of my score on a random round\"",\""Whether I chose the move that was best according to the information I had.\""]"", ""internal_node_id"": ""0.0-0.3-1.3"", ""time_elapsed"": 297243, ""questions"": ""[\""How many flights are there per round?\"",\""True or false: The hidden values will change each time I start a new round.\"",\""How much does it cost to observe each hidden value?\"",\""How many hidden values am I allowed to observe in each round?\"",\""How is your bonus determined?\"",\""What does the feedback teach you?\""]"", ""correct"": [false, true, true, true, true, false], ""trial_index"": 7}"
A1DJBDVXF6Z1KK:3TXMY6UCAEOIC3TQ4K5QJOV3Z3ACQI,8,1495054188775,"{""rt"": 87637, ""trial_type"": ""instructions"", ""view_history"": ""[{\""page_index\"":0,\""viewing_time\"":26518},{\""page_index\"":1,\""viewing_time\"":24319},{\""page_index\"":2,\""viewing_time\"":30264},{\""page_index\"":3,\""viewing_time\"":6535}]"", ""internal_node_id"": ""0.0-0.4-0.4"", ""time_elapsed"": 385881, ""trial_index"": 8}"
