A10GJ2FOR16B2I:33NF62TLXJ2J9E11172FA6WPQTQKJZ,0,1492821424813,"{""rt"": 183903, ""trial_type"": ""instructions"", ""view_history"": ""[{\""page_index\"":0,\""viewing_time\"":37352},{\""page_index\"":1,\""viewing_time\"":123},{\""page_index\"":0,\""viewing_time\"":611},{\""page_index\"":1,\""viewing_time\"":2016},{\""page_index\"":0,\""viewing_time\"":3506},{\""page_index\"":1,\""viewing_time\"":47100},{\""page_index\"":2,\""viewing_time\"":16993},{\""page_index\"":3,\""viewing_time\"":26724},{\""page_index\"":2,\""viewing_time\"":4765},{\""page_index\"":1,\""viewing_time\"":10287},{\""page_index\"":2,\""viewing_time\"":1325},{\""page_index\"":3,\""viewing_time\"":3594},{\""page_index\"":2,\""viewing_time\"":28560},{\""page_index\"":3,\""viewing_time\"":946}]"", ""internal_node_id"": ""0.0-0.0-0.0"", ""time_elapsed"": 183903, ""trial_index"": 0}"
A10GJ2FOR16B2I:33NF62TLXJ2J9E11172FA6WPQTQKJZ,1,1492821507147,"{""rt"": 78510, ""trial_type"": ""survey-multi-choice"", ""responses"": ""[\""1\"",\""True\"",\""$0.10\"",\""As many or as few as I wish\"",\""My earnings for each round are equal to the <i>sum</i> of the values of all locations I visit (minus the cost of making observations), but these earnings aren't real money.\"",\""All of the above.\""]"", ""internal_node_id"": ""0.0-0.0-1.0"", ""time_elapsed"": 266237, ""questions"": ""[\""How many flights are there per round?\"",\""True or false: The hidden values will change each time I start a new round.\"",\""How much does it cost to observe each hidden value?\"",\""How many hidden values am I allowed to observe in each round?\"",\""Which statement is TRUE?\"",\""What does the feedback teach me?\""]"", ""correct"": [false, true, true, true, false, true], ""trial_index"": 1}"
A10GJ2FOR16B2I:33NF62TLXJ2J9E11172FA6WPQTQKJZ,2,1492821575204,"{""rt"": 67054, ""trial_type"": ""instructions"", ""view_history"": ""[{\""page_index\"":0,\""viewing_time\"":17741},{\""page_index\"":1,\""viewing_time\"":15835},{\""page_index\"":2,\""viewing_time\"":19072},{\""page_index\"":3,\""viewing_time\"":14404}]"", ""internal_node_id"": ""0.0-0.1-0.1"", ""time_elapsed"": 334295, ""trial_index"": 2}"
A10GJ2FOR16B2I:33NF62TLXJ2J9E11172FA6WPQTQKJZ,3,1492821757342,"{""rt"": 178471, ""trial_type"": ""survey-multi-choice"", ""responses"": ""[\""1\"",\""True\"",\""$0.10\"",\""As many or as few as I wish\"",\""My earnings for each round are equal to the <i>sum</i> of the values of all locations I visit (minus the cost of making observations), and I will be paid the earnings from one of the 8 rounds.\"",\""Whether I observed the rewards of relevant locations.\""]"", ""internal_node_id"": ""0.0-0.1-1.1"", ""time_elapsed"": 516433, ""questions"": ""[\""How many flights are there per round?\"",\""True or false: The hidden values will change each time I start a new round.\"",\""How much does it cost to observe each hidden value?\"",\""How many hidden values am I allowed to observe in each round?\"",\""Which statement is TRUE?\"",\""What does the feedback teach me?\""]"", ""correct"": [false, true, true, true, true, false], ""trial_index"": 3}"
A10GJ2FOR16B2I:33NF62TLXJ2J9E11172FA6WPQTQKJZ,4,1492821772767,"{""rt"": 14422, ""trial_type"": ""instructions"", ""view_history"": ""[{\""page_index\"":0,\""viewing_time\"":2551},{\""page_index\"":1,\""viewing_time\"":6602},{\""page_index\"":2,\""viewing_time\"":3225},{\""page_index\"":3,\""viewing_time\"":2043}]"", ""internal_node_id"": ""0.0-0.2-0.2"", ""time_elapsed"": 531858, ""trial_index"": 4}"
A10GJ2FOR16B2I:33NF62TLXJ2J9E11172FA6WPQTQKJZ,5,1492821854912,"{""rt"": 74772, ""trial_type"": ""survey-multi-choice"", ""responses"": ""[\""1\"",\""True\"",\""$0.10\"",\""As many or as few as I wish\"",\""My earnings for each round are equal to the value of one of the locations I visit (minus the cost of making observations), but these earnings aren't real money.\"",\""All of the above.\""]"", ""internal_node_id"": ""0.0-0.2-1.2"", ""time_elapsed"": 614003, ""questions"": ""[\""How many flights are there per round?\"",\""True or false: The hidden values will change each time I start a new round.\"",\""How much does it cost to observe each hidden value?\"",\""How many hidden values am I allowed to observe in each round?\"",\""Which statement is TRUE?\"",\""What does the feedback teach me?\""]"", ""correct"": [false, true, true, true, false, true], ""trial_index"": 5}"
A10GJ2FOR16B2I:33NF62TLXJ2J9E11172FA6WPQTQKJZ,6,1492821862776,"{""rt"": 6859, ""trial_type"": ""instructions"", ""view_history"": ""[{\""page_index\"":0,\""viewing_time\"":2729},{\""page_index\"":1,\""viewing_time\"":1802},{\""page_index\"":2,\""viewing_time\"":1390},{\""page_index\"":3,\""viewing_time\"":936}]"", ""internal_node_id"": ""0.0-0.3-0.3"", ""time_elapsed"": 621867, ""trial_index"": 6}"
A10GJ2FOR16B2I:33NF62TLXJ2J9E11172FA6WPQTQKJZ,7,1492821885359,"{""rt"": 20106, ""trial_type"": ""survey-multi-choice"", ""responses"": ""[\""1\"",\""True\"",\""$0.10\"",\""As many or as few as I wish\"",\""My earnings for each round are equal to the <i>sum</i> of the values of all locations I visit (minus the cost of making observations), and I will be paid the earnings from one of the 8 rounds.\"",\""All of the above.\""]"", ""internal_node_id"": ""0.0-0.3-1.3"", ""time_elapsed"": 644450, ""questions"": ""[\""How many flights are there per round?\"",\""True or false: The hidden values will change each time I start a new round.\"",\""How much does it cost to observe each hidden value?\"",\""How many hidden values am I allowed to observe in each round?\"",\""Which statement is TRUE?\"",\""What does the feedback teach me?\""]"", ""correct"": [false, true, true, true, true, true], ""trial_index"": 7}"
A10GJ2FOR16B2I:33NF62TLXJ2J9E11172FA6WPQTQKJZ,8,1492821892758,"{""rt"": 6398, ""trial_type"": ""instructions"", ""view_history"": ""[{\""page_index\"":0,\""viewing_time\"":2450},{\""page_index\"":1,\""viewing_time\"":1126},{\""page_index\"":2,\""viewing_time\"":1266},{\""page_index\"":3,\""viewing_time\"":1555}]"", ""internal_node_id"": ""0.0-0.4-0.4"", ""time_elapsed"": 651849, ""trial_index"": 8}"
A10GJ2FOR16B2I:33NF62TLXJ2J9E11172FA6WPQTQKJZ,9,1492821938874,"{""rt"": 45097, ""trial_type"": ""survey-multi-choice"", ""responses"": ""[\""3\"",\""True\"",\""$0.10\"",\""As many or as few as I wish\"",\""My earnings for each round are equal to the <i>sum</i> of the values of all locations I visit (minus the cost of making observations), and I will be paid the earnings from one of the 8 rounds.\"",\""All of the above.\""]"", ""internal_node_id"": ""0.0-0.4-1.4"", ""time_elapsed"": 697965, ""questions"": ""[\""How many flights are there per round?\"",\""True or false: The hidden values will change each time I start a new round.\"",\""How much does it cost to observe each hidden value?\"",\""How many hidden values am I allowed to observe in each round?\"",\""Which statement is TRUE?\"",\""What does the feedback teach me?\""]"", ""correct"": [true, true, true, true, true, true], ""trial_index"": 9}"
A10GJ2FOR16B2I:33NF62TLXJ2J9E11172FA6WPQTQKJZ,10,1492821993625,"{""rt"": [24128, 2051, 1], ""trial_type"": ""graph"", ""infoCost"": 0.1, ""minTime"": 45, ""delays"": [3.18, 0, 0], ""actionTimes"": [24129, 30099, 30994], ""time_elapsed"": 752716, ""actions"": [""left"", ""left"", ""up""], ""trialIndex"": 1, ""score"": 32.6, ""trial_index"": 10, ""internal_node_id"": ""0.0-1.0-0.0"", ""clickTimes"": [4055, 5465, 6421, 7804, 9242, 10239, 11321, 13524, 14105, 15109, 16095, 17820, 18622, 19295], ""path"": [1, 4, 8, 14], ""trialID"": 5, ""clicks"": [""4"", ""8"", ""14"", ""15"", ""17"", ""9"", ""5"", ""6"", ""2"", ""10"", ""11"", ""13"", ""12"", ""7""], ""condition"": 3}"
A10GJ2FOR16B2I:33NF62TLXJ2J9E11172FA6WPQTQKJZ,11,1492822053366,"{""rt"": [18978, 517, 1], ""trial_type"": ""graph"", ""infoCost"": 0.1, ""minTime"": 45, ""delays"": [3.18, 0, 0], ""actionTimes"": [18978, 23344, 24207], ""time_elapsed"": 812456, ""actions"": [""right"", ""right"", ""down""], ""trialIndex"": 2, ""score"": 30.7, ""trial_index"": 11, ""internal_node_id"": ""0.0-1.0-1.0"", ""clickTimes"": [450, 1776, 3093, 3884, 4681, 5639, 6740, 7694, 10476, 11497, 14670, 16107, 17107], ""path"": [1, 2, 6, 11], ""trialID"": 2, ""clicks"": [""12"", ""13"", ""10"", ""11"", ""17"", ""16"", ""14"", ""15"", ""7"", ""6"", ""9"", ""3"", ""2""], ""condition"": 3}"
A10GJ2FOR16B2I:33NF62TLXJ2J9E11172FA6WPQTQKJZ,12,1492822104709,"{""rt"": [20630, 584, 2], ""trial_type"": ""graph"", ""infoCost"": 0.1, ""minTime"": 45, ""delays"": [3.18, 0, 0], ""actionTimes"": [20630, 25270, 26151], ""time_elapsed"": 863799, ""actions"": [""right"", ""right"", ""up""], ""trialIndex"": 3, ""score"": 32.9, ""trial_index"": 12, ""internal_node_id"": ""0.0-1.0-2.0"", ""clickTimes"": [2897, 4961, 5730, 6629, 8505, 9412, 11727, 13129, 13997, 15435, 16146], ""path"": [1, 2, 6, 10], ""trialID"": 3, ""clicks"": [""2"", ""3"", ""4"", ""5"", ""9"", ""17"", ""7"", ""6"", ""8"", ""11"", ""10""], ""condition"": 3}"
A10GJ2FOR16B2I:33NF62TLXJ2J9E11172FA6WPQTQKJZ,13,1492822155680,"{""rt"": [15906, 477, 1], ""trial_type"": ""graph"", ""infoCost"": 0.1, ""minTime"": 45, ""delays"": [3.18, 0, 0], ""actionTimes"": [15907, 20439, 21376], ""time_elapsed"": 914771, ""actions"": [""left"", ""left"", ""up""], ""trialIndex"": 4, ""score"": 16.9, ""trial_index"": 13, ""internal_node_id"": ""0.0-1.0-3.0"", ""clickTimes"": [575, 1143, 2109, 2681, 3543, 4488, 5532, 6222, 7588, 8798, 10904], ""path"": [1, 4, 8, 14], ""trialID"": 7, ""clicks"": [""3"", ""7"", ""5"", ""9"", ""4"", ""8"", ""2"", ""6"", ""13"", ""12"", ""14""], ""condition"": 3}"
A10GJ2FOR16B2I:33NF62TLXJ2J9E11172FA6WPQTQKJZ,14,1492822207787,"{""rt"": [20380, 529, 28], ""trial_type"": ""graph"", ""infoCost"": 0.1, ""minTime"": 45, ""delays"": [3.18, 0, 0], ""actionTimes"": [20380, 24878, 25790], ""time_elapsed"": 966877, ""actions"": [""up"", ""up"", ""left""], ""trialIndex"": 5, ""score"": 35.7, ""trial_index"": 14, ""internal_node_id"": ""0.0-1.0-4.0"", ""clickTimes"": [884, 1467, 2992, 3594, 4944, 5615, 7055, 7788, 8875, 10352, 12049, 17355, 18916], ""path"": [1, 3, 7, 12], ""trialID"": 6, ""clicks"": [""3"", ""7"", ""5"", ""9"", ""4"", ""8"", ""2"", ""6"", ""13"", ""14"", ""12"", ""10"", ""11""], ""condition"": 3}"
A10GJ2FOR16B2I:33NF62TLXJ2J9E11172FA6WPQTQKJZ,15,1492822258804,"{""rt"": [16732, 497, 55], ""trial_type"": ""graph"", ""infoCost"": 0.1, ""minTime"": 45, ""delays"": [3.18, 0, 0], ""actionTimes"": [16732, 20961, 21805], ""time_elapsed"": 1017895, ""actions"": [""down"", ""down"", ""right""], ""trialIndex"": 6, ""score"": 40.4, ""trial_index"": 15, ""internal_node_id"": ""0.0-1.0-5.0"", ""clickTimes"": [470, 919, 1859, 3096, 3707, 4420, 5296, 5750, 6496, 7881, 8958, 9732, 11607, 12952, 13921, 14969], ""path"": [1, 5, 9, 17], ""trialID"": 4, ""clicks"": [""3"", ""7"", ""4"", ""8"", ""2"", ""6"", ""5"", ""9"", ""16"", ""12"", ""14"", ""15"", ""17"", ""11"", ""10"", ""13""], ""condition"": 3}"
A10GJ2FOR16B2I:33NF62TLXJ2J9E11172FA6WPQTQKJZ,16,1492822309492,"{""rt"": [18851, 676, 97], ""trial_type"": ""graph"", ""infoCost"": 0.1, ""minTime"": 45, ""delays"": [3.18, 0, 0], ""actionTimes"": [18851, 23402, 24391], ""time_elapsed"": 1068583, ""actions"": [""left"", ""left"", ""up""], ""trialIndex"": 7, ""score"": 38.5, ""trial_index"": 16, ""internal_node_id"": ""0.0-1.0-6.0"", ""clickTimes"": [1097, 1768, 2996, 3459, 4287, 4910, 5836, 6342, 9761, 10668, 11826, 13098, 14443, 15249, 16719], ""path"": [1, 4, 8, 14], ""trialID"": 0, ""clicks"": [""5"", ""9"", ""7"", ""3"", ""2"", ""6"", ""4"", ""8"", ""16"", ""17"", ""14"", ""15"", ""12"", ""13"", ""10""], ""condition"": 3}"
A10GJ2FOR16B2I:33NF62TLXJ2J9E11172FA6WPQTQKJZ,17,1492822372206,"{""rt"": [18765, 568, 1], ""trial_type"": ""graph"", ""infoCost"": 0.1, ""minTime"": 45, ""delays"": [3.18, 0, 0], ""actionTimes"": [18765, 23191, 24043], ""time_elapsed"": 1131297, ""actions"": [""down"", ""down"", ""left""], ""trialIndex"": 8, ""score"": 44.5, ""trial_index"": 17, ""internal_node_id"": ""0.0-1.0-7.0"", ""clickTimes"": [1285, 1988, 2830, 3296, 4668, 5306, 5968, 6664, 9272, 10096, 11617, 13433, 14255, 15988, 16877], ""path"": [1, 5, 9, 16], ""trialID"": 1, ""clicks"": [""3"", ""7"", ""5"", ""9"", ""2"", ""6"", ""4"", ""8"", ""12"", ""13"", ""14"", ""10"", ""11"", ""17"", ""16""], ""condition"": 3}"
A10GJ2FOR16B2I:33NF62TLXJ2J9E11172FA6WPQTQKJZ,18,1492822376928,"{""rt"": 3703, ""trial_type"": ""button-response"", ""button_pressed"": 0, ""stimulus"": ""<h1 id=\""thiscompletesthehit\"">This completes the HIT</h1>\n\n<p>One or your trials has been randomly selected and we will pay you 5% of your profit on that trial as a bonus. You will be awarded a bonus of $2.02</p>"", ""internal_node_id"": ""0.0-2.0"", ""time_elapsed"": 1136019, ""trial_index"": 18}"
A10VLJT7V96D9W:32M8BPYGATMICHLCTYW00DPW6XQGIM,0,1492824813704,"{""rt"": 103627, ""trial_type"": ""instructions"", ""view_history"": ""[{\""page_index\"":0,\""viewing_time\"":14026},{\""page_index\"":1,\""viewing_time\"":47799},{\""page_index\"":2,\""viewing_time\"":20672},{\""page_index\"":3,\""viewing_time\"":21127}]"", ""internal_node_id"": ""0.0-0.0-0.0"", ""time_elapsed"": 103629, ""trial_index"": 0}"
A10VLJT7V96D9W:32M8BPYGATMICHLCTYW00DPW6XQGIM,1,1492825017224,"{""rt"": 198375, ""trial_type"": ""survey-multi-choice"", ""responses"": ""[\""1\"",\""True\"",\""$0.10\"",\""As many or as few as I wish\"",\""My earnings for each round are equal to the <i>sum</i> of the values of all locations I visit (minus the cost of making observations), and I will be paid the earnings from one of the 8 rounds.\"",\""Whether I chose the move that was best according to the information I had.\""]"", ""internal_node_id"": ""0.0-0.0-1.0"", ""time_elapsed"": 307149, ""questions"": ""[\""How many flights are there per round?\"",\""True or false: The hidden values will change each time I start a new round.\"",\""How much does it cost to observe each hidden value?\"",\""How many hidden values am I allowed to observe in each round?\"",\""Which statement is TRUE?\"",\""What does the feedback teach me?\""]"", ""correct"": [false, true, true, true, true, false], ""trial_index"": 1}"
A10VLJT7V96D9W:32M8BPYGATMICHLCTYW00DPW6XQGIM,2,1492825120191,"{""rt"": 101476, ""trial_type"": ""instructions"", ""view_history"": ""[{\""page_index\"":0,\""viewing_time\"":96358},{\""page_index\"":1,\""viewing_time\"":2187},{\""page_index\"":2,\""viewing_time\"":1712},{\""page_index\"":3,\""viewing_time\"":1217}]"", ""internal_node_id"": ""0.0-0.1-0.1"", ""time_elapsed"": 410117, ""trial_index"": 2}"
A10VLJT7V96D9W:32M8BPYGATMICHLCTYW00DPW6XQGIM,3,1492825159229,"{""rt"": 36398, ""trial_type"": ""survey-multi-choice"", ""responses"": ""[\""2\"",\""True\"",\""$0.10\"",\""As many or as few as I wish\"",\""My earnings for each round are equal to the <i>sum</i> of the values of all locations I visit (minus the cost of making observations), and I will be paid the earnings from one of the 8 rounds.\"",\""All of the above.\""]"", ""internal_node_id"": ""0.0-0.1-1.1"", ""time_elapsed"": 449155, ""questions"": ""[\""How many flights are there per round?\"",\""True or false: The hidden values will change each time I start a new round.\"",\""How much does it cost to observe each hidden value?\"",\""How many hidden values am I allowed to observe in each round?\"",\""Which statement is TRUE?\"",\""What does the feedback teach me?\""]"", ""correct"": [false, true, true, true, true, true], ""trial_index"": 3}"
A10VLJT7V96D9W:32M8BPYGATMICHLCTYW00DPW6XQGIM,4,1492825167676,"{""rt"": 7444, ""trial_type"": ""instructions"", ""view_history"": ""[{\""page_index\"":0,\""viewing_time\"":2667},{\""page_index\"":1,\""viewing_time\"":1201},{\""page_index\"":2,\""viewing_time\"":2023},{\""page_index\"":3,\""viewing_time\"":1552}]"", ""internal_node_id"": ""0.0-0.2-0.2"", ""time_elapsed"": 457602, ""trial_index"": 4}"
A10VLJT7V96D9W:32M8BPYGATMICHLCTYW00DPW6XQGIM,5,1492825204653,"{""rt"": 33525, ""trial_type"": ""survey-multi-choice"", ""responses"": ""[\""2\"",\""True\"",\""$0.10\"",\""As many or as few as I wish\"",\""My earnings for each round are equal to the <i>sum</i> of the values of all locations I visit (minus the cost of making observations), and I will be paid the earnings from one of the 8 rounds.\"",\""Whether I chose the move that was best according to the information I had.\""]"", ""internal_node_id"": ""0.0-0.2-1.2"", ""time_elapsed"": 494579, ""questions"": ""[\""How many flights are there per round?\"",\""True or false: The hidden values will change each time I start a new round.\"",\""How much does it cost to observe each hidden value?\"",\""How many hidden values am I allowed to observe in each round?\"",\""Which statement is TRUE?\"",\""What does the feedback teach me?\""]"", ""correct"": [false, true, true, true, true, false], ""trial_index"": 5}"
A10VLJT7V96D9W:32M8BPYGATMICHLCTYW00DPW6XQGIM,6,1492825212324,"{""rt"": 6665, ""trial_type"": ""instructions"", ""view_history"": ""[{\""page_index\"":0,\""viewing_time\"":2217},{\""page_index\"":1,\""viewing_time\"":1320},{\""page_index\"":2,\""viewing_time\"":1333},{\""page_index\"":3,\""viewing_time\"":1794}]"", ""internal_node_id"": ""0.0-0.3-0.3"", ""time_elapsed"": 502250, ""trial_index"": 6}"
A10VLJT7V96D9W:32M8BPYGATMICHLCTYW00DPW6XQGIM,7,1492825301621,"{""rt"": 86231, ""trial_type"": ""survey-multi-choice"", ""responses"": ""[\""2\"",\""True\"",\""$0.10\"",\""As many or as few as I wish\"",\""My earnings for each round are equal to the <i>sum</i> of the values of all locations I visit (minus the cost of making observations), and I will be paid the earnings from one of the 8 rounds.\"",\""All of the above.\""]"", ""internal_node_id"": ""0.0-0.3-1.3"", ""time_elapsed"": 591548, ""questions"": ""[\""How many flights are there per round?\"",\""True or false: The hidden values will change each time I start a new round.\"",\""How much does it cost to observe each hidden value?\"",\""How many hidden values am I allowed to observe in each round?\"",\""Which statement is TRUE?\"",\""What does the feedback teach me?\""]"", ""correct"": [false, true, true, true, true, true], ""trial_index"": 7}"
A10VLJT7V96D9W:32M8BPYGATMICHLCTYW00DPW6XQGIM,8,1492825310698,"{""rt"": 8070, ""trial_type"": ""instructions"", ""view_history"": ""[{\""page_index\"":0,\""viewing_time\"":2421},{\""page_index\"":1,\""viewing_time\"":2112},{\""page_index\"":2,\""viewing_time\"":1777},{\""page_index\"":3,\""viewing_time\"":1760}]"", ""internal_node_id"": ""0.0-0.4-0.4"", ""time_elapsed"": 600625, ""trial_index"": 8}"
A10VLJT7V96D9W:32M8BPYGATMICHLCTYW00DPW6XQGIM,9,1492825393774,"{""rt"": 78978, ""trial_type"": ""survey-multi-choice"", ""responses"": ""[\""2\"",\""True\"",\""$0.10\"",\""As many or as few as I wish\"",\""My earnings for each round are equal to the <i>sum</i> of the values of all locations I visit (minus the cost of making observations), and I will be paid the earnings from one of the 8 rounds.\"",\""All of the above.\""]"", ""internal_node_id"": ""0.0-0.4-1.4"", ""time_elapsed"": 683700, ""questions"": ""[\""How many flights are there per round?\"",\""True or false: The hidden values will change each time I start a new round.\"",\""How much does it cost to observe each hidden value?\"",\""How many hidden values am I allowed to observe in each round?\"",\""Which statement is TRUE?\"",\""What does the feedback teach me?\""]"", ""correct"": [false, true, true, true, true, true], ""trial_index"": 9}"
A10VLJT7V96D9W:32M8BPYGATMICHLCTYW00DPW6XQGIM,10,1492825402012,"{""rt"": 7232, ""trial_type"": ""instructions"", ""view_history"": ""[{\""page_index\"":0,\""viewing_time\"":2265},{\""page_index\"":1,\""viewing_time\"":1484},{\""page_index\"":2,\""viewing_time\"":1640},{\""page_index\"":3,\""viewing_time\"":1842}]"", ""internal_node_id"": ""0.0-0.5-0.5"", ""time_elapsed"": 691938, ""trial_index"": 10}"
A10VLJT7V96D9W:32M8BPYGATMICHLCTYW00DPW6XQGIM,11,1492825510806,"{""rt"": 105652, ""trial_type"": ""survey-multi-choice"", ""responses"": ""[\""2\"",\""True\"",\""$0.10\"",\""As many or as few as I wish\"",\""My earnings for each round are equal to the <i>sum</i> of the values of all locations I visit (minus the cost of making observations), but these earnings aren't real money.\"",\""All of the above.\""]"", ""internal_node_id"": ""0.0-0.5-1.5"", ""time_elapsed"": 800732, ""questions"": ""[\""How many flights are there per round?\"",\""True or false: The hidden values will change each time I start a new round.\"",\""How much does it cost to observe each hidden value?\"",\""How many hidden values am I allowed to observe in each round?\"",\""Which statement is TRUE?\"",\""What does the feedback teach me?\""]"", ""correct"": [false, true, true, true, false, true], ""trial_index"": 11}"
A10VLJT7V96D9W:32M8BPYGATMICHLCTYW00DPW6XQGIM,12,1492825525988,"{""rt"": 14171, ""trial_type"": ""instructions"", ""view_history"": ""[{\""page_index\"":0,\""viewing_time\"":3024},{\""page_index\"":1,\""viewing_time\"":2906},{\""page_index\"":2,\""viewing_time\"":2310},{\""page_index\"":3,\""viewing_time\"":5929}]"", ""internal_node_id"": ""0.0-0.6-0.6"", ""time_elapsed"": 815915, ""trial_index"": 12}"
A10VLJT7V96D9W:32M8BPYGATMICHLCTYW00DPW6XQGIM,13,1492825564762,"{""rt"": 37746, ""trial_type"": ""survey-multi-choice"", ""responses"": ""[\""3\"",\""True\"",\""$0.10\"",\""As many or as few as I wish\"",\""My earnings for each round are equal to the <i>sum</i> of the values of all locations I visit (minus the cost of making observations), and I will be paid the earnings from one of the 8 rounds.\"",\""All of the above.\""]"", ""internal_node_id"": ""0.0-0.6-1.6"", ""time_elapsed"": 854689, ""questions"": ""[\""How many flights are there per round?\"",\""True or false: The hidden values will change each time I start a new round.\"",\""How much does it cost to observe each hidden value?\"",\""How many hidden values am I allowed to observe in each round?\"",\""Which statement is TRUE?\"",\""What does the feedback teach me?\""]"", ""correct"": [true, true, true, true, true, true], ""trial_index"": 13}"
A10VLJT7V96D9W:32M8BPYGATMICHLCTYW00DPW6XQGIM,14,1492825621535,"{""rt"": [8664, 14979, 249], ""trial_type"": ""graph"", ""infoCost"": 0.1, ""minTime"": 45, ""delays"": [3.18, 0, 0], ""actionTimes"": [8666, 28334, 29872], ""time_elapsed"": 911461, ""actions"": [""up"", ""up"", ""left""], ""trialIndex"": 1, ""score"": 20.7, ""trial_index"": 14, ""internal_node_id"": ""0.0-1.0-0.0"", ""clickTimes"": [18422, 19652, 20475], ""path"": [1, 3, 7, 12], ""trialID"": 1, ""clicks"": [""7"", ""13"", ""12""], ""condition"": 3}"
A10VLJT7V96D9W:32M8BPYGATMICHLCTYW00DPW6XQGIM,15,1492825686392,"{""rt"": [18786, 762, 2], ""trial_type"": ""graph"", ""infoCost"": 0.1, ""minTime"": 45, ""delays"": [3.18, 0, 0], ""actionTimes"": [18786, 24240, 25689], ""time_elapsed"": 976319, ""actions"": [""right"", ""right"", ""up""], ""trialIndex"": 2, ""score"": 33.2, ""trial_index"": 15, ""internal_node_id"": ""0.0-1.0-1.0"", ""clickTimes"": [5302, 6791, 9590, 10989, 11949, 14205, 15069, 16037], ""path"": [1, 2, 6, 10], ""trialID"": 3, ""clicks"": [""17"", ""10"", ""15"", ""12"", ""13"", ""4"", ""2"", ""6""], ""condition"": 3}"
A10VLJT7V96D9W:32M8BPYGATMICHLCTYW00DPW6XQGIM,16,1492825738521,"{""rt"": [13430, 524, 4], ""trial_type"": ""graph"", ""infoCost"": 0.1, ""minTime"": 45, ""delays"": [3.18, 0, 0], ""actionTimes"": [13431, 18383, 19745], ""time_elapsed"": 1028447, ""actions"": [""left"", ""left"", ""down""], ""trialIndex"": 3, ""score"": 27.3, ""trial_index"": 16, ""internal_node_id"": ""0.0-1.0-2.0"", ""clickTimes"": [3436, 5237, 5829, 7285, 7869, 8758, 9377], ""path"": [1, 4, 8, 15], ""trialID"": 6, ""clicks"": [""5"", ""9"", ""17"", ""8"", ""4"", ""14"", ""15""], ""condition"": 3}"
A10VLJT7V96D9W:32M8BPYGATMICHLCTYW00DPW6XQGIM,17,1492825801601,"{""rt"": [11947, 405, 3], ""trial_type"": ""graph"", ""infoCost"": 0.1, ""minTime"": 45, ""delays"": [3.18, 0, 0], ""actionTimes"": [11947, 16547, 17860], ""time_elapsed"": 1091527, ""actions"": [""left"", ""left"", ""up""], ""trialIndex"": 4, ""score"": 32.9, ""trial_index"": 17, ""internal_node_id"": ""0.0-1.0-3.0"", ""clickTimes"": [728, 1824, 3248, 4312, 5321, 6049, 6913, 7633, 8906, 9920, 10593], ""path"": [1, 4, 8, 14], ""trialID"": 5, ""clicks"": [""3"", ""7"", ""9"", ""8"", ""2"", ""6"", ""11"", ""10"", ""4"", ""15"", ""14""], ""condition"": 3}"
A10VLJT7V96D9W:32M8BPYGATMICHLCTYW00DPW6XQGIM,18,1492825855525,"{""rt"": [10631, 593, 2], ""trial_type"": ""graph"", ""infoCost"": 0.1, ""minTime"": 45, ""delays"": [3.18, 0, 0], ""actionTimes"": [10631, 15719, 17132], ""time_elapsed"": 1145452, ""actions"": [""right"", ""right"", ""down""], ""trialIndex"": 5, ""score"": 31, ""trial_index"": 18, ""internal_node_id"": ""0.0-1.0-4.0"", ""clickTimes"": [1604, 2724, 3380, 4348, 5444, 6332, 6996, 7915, 8318, 8788], ""path"": [1, 2, 6, 11], ""trialID"": 2, ""clicks"": [""3"", ""5"", ""9"", ""4"", ""8"", ""14"", ""15"", ""2"", ""6"", ""11""], ""condition"": 3}"
A10VLJT7V96D9W:32M8BPYGATMICHLCTYW00DPW6XQGIM,19,1492825912574,"{""rt"": [21531, 1693, 12], ""trial_type"": ""graph"", ""infoCost"": 0.1, ""minTime"": 45, ""delays"": [3.18, 0, 0], ""actionTimes"": [21531, 27713, 29326], ""time_elapsed"": 1202499, ""actions"": [""down"", ""down"", ""right""], ""trialIndex"": 6, ""score"": 41.6, ""trial_index"": 19, ""internal_node_id"": ""0.0-1.0-5.0"", ""clickTimes"": [15654, 18648, 19353, 19866], ""path"": [1, 5, 9, 17], ""trialID"": 4, ""clicks"": [""5"", ""16"", ""17"", ""9""], ""condition"": 3}"
A10VLJT7V96D9W:32M8BPYGATMICHLCTYW00DPW6XQGIM,20,1492825972801,"{""rt"": [11508, 13182, 18], ""trial_type"": ""graph"", ""infoCost"": 0.1, ""minTime"": 45, ""delays"": [3.18, 0, 0], ""actionTimes"": [11509, 29729, 31460], ""time_elapsed"": 1262728, ""actions"": [""left"", ""left"", ""up""], ""trialIndex"": 7, ""score"": 39.3, ""trial_index"": 20, ""internal_node_id"": ""0.0-1.0-6.0"", ""clickTimes"": [2797, 3762, 5210, 6335, 7763, 9194, 10296], ""path"": [1, 4, 8, 14], ""trialID"": 0, ""clicks"": [""5"", ""9"", ""16"", ""17"", ""4"", ""8"", ""14""], ""condition"": 3}"
A10VLJT7V96D9W:32M8BPYGATMICHLCTYW00DPW6XQGIM,21,1492826030335,"{""rt"": [17764, 661, 34], ""trial_type"": ""graph"", ""infoCost"": 0.1, ""minTime"": 45, ""delays"": [3.18, 0, 0], ""actionTimes"": [17765, 23737, 25315], ""time_elapsed"": 1320261, ""actions"": [""right"", ""right"", ""up""], ""trialIndex"": 8, ""score"": 20.8, ""trial_index"": 21, ""internal_node_id"": ""0.0-1.0-7.0"", ""clickTimes"": [4967, 6671, 7126, 7766, 9307, 10197, 11164, 11814, 13052, 13430, 14282, 16340], ""path"": [1, 2, 6, 10], ""trialID"": 7, ""clicks"": [""8"", ""2"", ""6"", ""10"", ""3"", ""7"", ""13"", ""12"", ""5"", ""9"", ""17"", ""11""], ""condition"": 3}"
A10VLJT7V96D9W:32M8BPYGATMICHLCTYW00DPW6XQGIM,22,1492826036572,"{""rt"": 5151, ""trial_type"": ""button-response"", ""button_pressed"": 0, ""stimulus"": ""<h1 id=\""thiscompletesthehit\"">This completes the HIT</h1>\n\n<p>One or your trials has been randomly selected and we will pay you 5% of your profit on that trial as a bonus. You will be awarded a bonus of $2.08</p>"", ""internal_node_id"": ""0.0-2.0"", ""time_elapsed"": 1326499, ""trial_index"": 22}"
A110JBKYAC0WAW:37C0GNLMHF3Z7DGKP7M3XPWUJYWD6Z,0,1491512618218,"{""rt"": 198535, ""trial_type"": ""instructions"", ""view_history"": ""[{\""page_index\"":0,\""viewing_time\"":106864},{\""page_index\"":1,\""viewing_time\"":47375},{\""page_index\"":2,\""viewing_time\"":16576},{\""page_index\"":3,\""viewing_time\"":27720}]"", ""internal_node_id"": ""0.0-0.0-0.0"", ""time_elapsed"": 198537, ""trial_index"": 0}"
A110JBKYAC0WAW:37C0GNLMHF3Z7DGKP7M3XPWUJYWD6Z,1,1491512677257,"{""rt"": 54583, ""trial_type"": ""survey-multi-choice"", ""responses"": ""[\""1\"",\""True\"",\""$0.10\"",\""As many or as few as I wish\"",\""My earnings for each round are equal to the value of one of the locations I visit (minus the cost of making observations), but these earnings aren't real money.\"",\""False\""]"", ""internal_node_id"": ""0.0-0.0-1.0"", ""time_elapsed"": 257576, ""questions"": ""[\""How many flights are there per round?\"",\""True or false: The hidden values will change each time I start a new round.\"",\""How much does it cost to observe each hidden value?\"",\""How many hidden values am I allowed to observe in each round?\"",\""Which statement is TRUE?\"",\""True of false: The duration of the delay tells me how much more money I could have earned by planning and deciding better.\""]"", ""correct"": [false, true, true, true, false, false], ""trial_index"": 1}"
A110JBKYAC0WAW:37C0GNLMHF3Z7DGKP7M3XPWUJYWD6Z,2,1491512762897,"{""rt"": 84637, ""trial_type"": ""instructions"", ""view_history"": ""[{\""page_index\"":0,\""viewing_time\"":19006},{\""page_index\"":1,\""viewing_time\"":28752},{\""page_index\"":2,\""viewing_time\"":24024},{\""page_index\"":3,\""viewing_time\"":12855}]"", ""internal_node_id"": ""0.0-0.1-0.1"", ""time_elapsed"": 343215, ""trial_index"": 2}"
A110JBKYAC0WAW:37C0GNLMHF3Z7DGKP7M3XPWUJYWD6Z,3,1491512808337,"{""rt"": 42795, ""trial_type"": ""survey-multi-choice"", ""responses"": ""[\""3\"",\""True\"",\""$0.10\"",\""As many or as few as I wish\"",\""My earnings for each round are equal to the <i>sum</i> of the values of all locations I visit (minus the cost of making observations), and I will be paid the earnings from one of the 8 rounds.\"",\""False\""]"", ""internal_node_id"": ""0.0-0.1-1.1"", ""time_elapsed"": 388656, ""questions"": ""[\""How many flights are there per round?\"",\""True or false: The hidden values will change each time I start a new round.\"",\""How much does it cost to observe each hidden value?\"",\""How many hidden values am I allowed to observe in each round?\"",\""Which statement is TRUE?\"",\""True of false: The duration of the delay tells me how much more money I could have earned by planning and deciding better.\""]"", ""correct"": [true, true, true, true, true, false], ""trial_index"": 3}"
A110JBKYAC0WAW:37C0GNLMHF3Z7DGKP7M3XPWUJYWD6Z,4,1491512828793,"{""rt"": 19454, ""trial_type"": ""instructions"", ""view_history"": ""[{\""page_index\"":0,\""viewing_time\"":2477},{\""page_index\"":1,\""viewing_time\"":1240},{\""page_index\"":2,\""viewing_time\"":12096},{\""page_index\"":3,\""viewing_time\"":3640}]"", ""internal_node_id"": ""0.0-0.2-0.2"", ""time_elapsed"": 409112, ""trial_index"": 4}"
A110JBKYAC0WAW:37C0GNLMHF3Z7DGKP7M3XPWUJYWD6Z,5,1491512858481,"{""rt"": 26820, ""trial_type"": ""survey-multi-choice"", ""responses"": ""[\""1\"",\""True\"",\""$0.10\"",\""As many or as few as I wish\"",\""My earnings for each round are equal to the <i>sum</i> of the values of all locations I visit (minus the cost of making observations), and I will be paid the earnings from one of the 8 rounds.\"",\""True\""]"", ""internal_node_id"": ""0.0-0.2-1.2"", ""time_elapsed"": 438800, ""questions"": ""[\""How many flights are there per round?\"",\""True or false: The hidden values will change each time I start a new round.\"",\""How much does it cost to observe each hidden value?\"",\""How many hidden values am I allowed to observe in each round?\"",\""Which statement is TRUE?\"",\""True of false: The duration of the delay tells me how much more money I could have earned by planning and deciding better.\""]"", ""correct"": [false, true, true, true, true, true], ""trial_index"": 5}"
A110JBKYAC0WAW:37C0GNLMHF3Z7DGKP7M3XPWUJYWD6Z,6,1491512887376,"{""rt"": 27891, ""trial_type"": ""instructions"", ""view_history"": ""[{\""page_index\"":0,\""viewing_time\"":22955},{\""page_index\"":1,\""viewing_time\"":1888},{\""page_index\"":2,\""viewing_time\"":1288},{\""page_index\"":3,\""viewing_time\"":1760}]"", ""internal_node_id"": ""0.0-0.3-0.3"", ""time_elapsed"": 467695, ""trial_index"": 6}"
A110JBKYAC0WAW:37C0GNLMHF3Z7DGKP7M3XPWUJYWD6Z,7,1491512908184,"{""rt"": 18239, ""trial_type"": ""survey-multi-choice"", ""responses"": ""[\""3\"",\""True\"",\""$0.10\"",\""As many or as few as I wish\"",\""My earnings for each round are equal to the <i>sum</i> of the values of all locations I visit (minus the cost of making observations), and I will be paid the earnings from one of the 8 rounds.\"",\""False\""]"", ""internal_node_id"": ""0.0-0.3-1.3"", ""time_elapsed"": 488503, ""questions"": ""[\""How many flights are there per round?\"",\""True or false: The hidden values will change each time I start a new round.\"",\""How much does it cost to observe each hidden value?\"",\""How many hidden values am I allowed to observe in each round?\"",\""Which statement is TRUE?\"",\""True of false: The duration of the delay tells me how much more money I could have earned by planning and deciding better.\""]"", ""correct"": [true, true, true, true, true, false], ""trial_index"": 7}"
A110JBKYAC0WAW:37C0GNLMHF3Z7DGKP7M3XPWUJYWD6Z,8,1491512913832,"{""rt"": 4646, ""trial_type"": ""instructions"", ""view_history"": ""[{\""page_index\"":0,\""viewing_time\"":1734},{\""page_index\"":1,\""viewing_time\"":984},{\""page_index\"":2,\""viewing_time\"":928},{\""page_index\"":3,\""viewing_time\"":1000}]"", ""internal_node_id"": ""0.0-0.4-0.4"", ""time_elapsed"": 494151, ""trial_index"": 8}"
A110JBKYAC0WAW:37C0GNLMHF3Z7DGKP7M3XPWUJYWD6Z,9,1491512939640,"{""rt"": 23311, ""trial_type"": ""survey-multi-choice"", ""responses"": ""[\""1\"",\""True\"",\""$0.10\"",\""As many or as few as I wish\"",\""My earnings for each round are equal to the <i>sum</i> of the values of all locations I visit (minus the cost of making observations), and I will be paid the earnings from one of the 8 rounds.\"",\""True\""]"", ""internal_node_id"": ""0.0-0.4-1.4"", ""time_elapsed"": 519959, ""questions"": ""[\""How many flights are there per round?\"",\""True or false: The hidden values will change each time I start a new round.\"",\""How much does it cost to observe each hidden value?\"",\""How many hidden values am I allowed to observe in each round?\"",\""Which statement is TRUE?\"",\""True of false: The duration of the delay tells me how much more money I could have earned by planning and deciding better.\""]"", ""correct"": [false, true, true, true, true, true], ""trial_index"": 9}"
A110JBKYAC0WAW:37C0GNLMHF3Z7DGKP7M3XPWUJYWD6Z,10,1491512948848,"{""rt"": 8206, ""trial_type"": ""instructions"", ""view_history"": ""[{\""page_index\"":0,\""viewing_time\"":5462},{\""page_index\"":1,\""viewing_time\"":832},{\""page_index\"":2,\""viewing_time\"":848},{\""page_index\"":3,\""viewing_time\"":1064}]"", ""internal_node_id"": ""0.0-0.5-0.5"", ""time_elapsed"": 529167, ""trial_index"": 10}"
A110JBKYAC0WAW:37C0GNLMHF3Z7DGKP7M3XPWUJYWD6Z,11,1491512965930,"{""rt"": 16060, ""trial_type"": ""survey-multi-choice"", ""responses"": ""[\""3\"",\""True\"",\""$0.10\"",\""As many or as few as I wish\"",\""My earnings for each round are equal to the <i>sum</i> of the values of all locations I visit (minus the cost of making observations), and I will be paid the earnings from one of the 8 rounds.\"",\""True\""]"", ""internal_node_id"": ""0.0-0.5-1.5"", ""time_elapsed"": 546248, ""questions"": ""[\""How many flights are there per round?\"",\""True or false: The hidden values will change each time I start a new round.\"",\""How much does it cost to observe each hidden value?\"",\""How many hidden values am I allowed to observe in each round?\"",\""Which statement is TRUE?\"",\""True of false: The duration of the delay tells me how much more money I could have earned by planning and deciding better.\""]"", ""correct"": [true, true, true, true, true, true], ""trial_index"": 11}"
A110JBKYAC0WAW:37C0GNLMHF3Z7DGKP7M3XPWUJYWD6Z,12,1491513020423,"{""rt"": [23781, 2142, 899], ""trial_type"": ""graph"", ""infoCost"": 0.1, ""minTime"": 45, ""delays"": [2, 0, 2], ""actionTimes"": [23782, 29098, 31124], ""time_elapsed"": 600742, ""actions"": [""left"", ""left"", ""up""], ""trialIndex"": 1, ""score"": 39.1, ""trial_index"": 12, ""internal_node_id"": ""0.0-1.0-0.0"", ""clickTimes"": [7124, 9167, 10832, 11903, 13688, 14593, 15832, 17137, 18201], ""path"": [1, 4, 8, 14], ""trialID"": 0, ""clicks"": [""2"", ""3"", ""4"", ""5"", ""9"", ""17"", ""16"", ""8"", ""14""], ""condition"": 2}"
A110JBKYAC0WAW:37C0GNLMHF3Z7DGKP7M3XPWUJYWD6Z,13,1491513105443,"{""rt"": [24109, 3, 387], ""trial_type"": ""graph"", ""infoCost"": 0.1, ""minTime"": 45, ""delays"": [-1, 0, 0], ""actionTimes"": [24109, 25162, 26550], ""time_elapsed"": 685762, ""actions"": [""left"", ""left"", ""up""], ""trialIndex"": 2, ""score"": 32.7, ""trial_index"": 13, ""internal_node_id"": ""0.0-1.0-1.0"", ""clickTimes"": [1877, 3181, 4396, 5605, 7837, 9318, 11661, 13317, 14701, 16197, 18814, 19830, 21038], ""path"": [1, 4, 8, 14], ""trialID"": 5, ""clicks"": [""4"", ""3"", ""2"", ""5"", ""7"", ""12"", ""8"", ""14"", ""15"", ""9"", ""6"", ""10"", ""11""], ""condition"": 2}"
A110JBKYAC0WAW:37C0GNLMHF3Z7DGKP7M3XPWUJYWD6Z,14,1491513158006,"{""rt"": [22342, 1, 226], ""trial_type"": ""graph"", ""infoCost"": 0.1, ""minTime"": 45, ""delays"": [-1, 0, 0], ""actionTimes"": [22342, 23236, 24482], ""time_elapsed"": 738325, ""actions"": [""down"", ""down"", ""right""], ""trialIndex"": 3, ""score"": 40.9, ""trial_index"": 14, ""internal_node_id"": ""0.0-1.0-2.0"", ""clickTimes"": [5520, 6679, 7687, 9103, 11151, 12191, 13263, 14760, 16191, 17119, 18519], ""path"": [1, 5, 9, 17], ""trialID"": 4, ""clicks"": [""2"", ""5"", ""4"", ""3"", ""8"", ""14"", ""15"", ""9"", ""16"", ""17"", ""7""], ""condition"": 2}"
A110JBKYAC0WAW:37C0GNLMHF3Z7DGKP7M3XPWUJYWD6Z,15,1491513206647,"{""rt"": [16147, 2, 177], ""trial_type"": ""graph"", ""infoCost"": 0.1, ""minTime"": 45, ""delays"": [-1, 0, 0], ""actionTimes"": [16147, 17023, 18189], ""time_elapsed"": 786965, ""actions"": [""right"", ""right"", ""up""], ""trialIndex"": 4, ""score"": 32.9, ""trial_index"": 15, ""internal_node_id"": ""0.0-1.0-3.0"", ""clickTimes"": [1047, 2714, 3698, 4818, 6706, 8058, 9442, 10754, 11738, 12977, 14395], ""path"": [1, 2, 6, 10], ""trialID"": 2, ""clicks"": [""2"", ""3"", ""4"", ""5"", ""9"", ""6"", ""8"", ""14"", ""15"", ""10"", ""11""], ""condition"": 2}"
A110JBKYAC0WAW:37C0GNLMHF3Z7DGKP7M3XPWUJYWD6Z,16,1491513254805,"{""rt"": [19770, 106, 182], ""trial_type"": ""graph"", ""infoCost"": 0.1, ""minTime"": 45, ""delays"": [-1, 0, 0], ""actionTimes"": [19770, 20837, 21995], ""time_elapsed"": 835123, ""actions"": [""right"", ""right"", ""up""], ""trialIndex"": 5, ""score"": 32.7, ""trial_index"": 16, ""internal_node_id"": ""0.0-1.0-4.0"", ""clickTimes"": [1217, 2921, 3898, 5146, 6770, 7473, 8586, 10346, 11266, 12106, 13841, 16802, 17722], ""path"": [1, 2, 6, 10], ""trialID"": 3, ""clicks"": [""3"", ""2"", ""5"", ""4"", ""9"", ""17"", ""16"", ""6"", ""11"", ""10"", ""7"", ""8"", ""14""], ""condition"": 2}"
A110JBKYAC0WAW:37C0GNLMHF3Z7DGKP7M3XPWUJYWD6Z,17,1491513304317,"{""rt"": [17756, 20, 532], ""trial_type"": ""graph"", ""infoCost"": 0.1, ""minTime"": 45, ""delays"": [-1, 0, 0], ""actionTimes"": [17756, 18543, 19998], ""time_elapsed"": 884636, ""actions"": [""down"", ""down"", ""left""], ""trialIndex"": 6, ""score"": 44.7, ""trial_index"": 17, ""internal_node_id"": ""0.0-1.0-5.0"", ""clickTimes"": [920, 1850, 2850, 3834, 5266, 6138, 7050, 8298, 10554, 12681, 14136, 14922, 15793], ""path"": [1, 5, 9, 16], ""trialID"": 1, ""clicks"": [""2"", ""3"", ""4"", ""5"", ""7"", ""13"", ""12"", ""9"", ""16"", ""17"", ""8"", ""14"", ""15""], ""condition"": 2}"
A110JBKYAC0WAW:37C0GNLMHF3Z7DGKP7M3XPWUJYWD6Z,18,1491513358802,"{""rt"": [21105, 1308, 2795], ""trial_type"": ""graph"", ""infoCost"": 0.1, ""minTime"": 45, ""delays"": [6, 0, 0], ""actionTimes"": [21105, 29107, 32872], ""time_elapsed"": 939121, ""actions"": [""right"", ""right"", ""up""], ""trialIndex"": 7, ""score"": 20.7, ""trial_index"": 18, ""internal_node_id"": ""0.0-1.0-6.0"", ""clickTimes"": [1431, 2735, 3686, 4783, 6590, 8623, 9581, 11351, 12414, 13374, 14888, 15862, 16902], ""path"": [1, 2, 6, 10], ""trialID"": 7, ""clicks"": [""3"", ""2"", ""5"", ""4"", ""6"", ""10"", ""11"", ""7"", ""13"", ""12"", ""8"", ""14"", ""15""], ""condition"": 2}"
A110JBKYAC0WAW:37C0GNLMHF3Z7DGKP7M3XPWUJYWD6Z,19,1491513406456,"{""rt"": [24178, 2, 40], ""trial_type"": ""graph"", ""infoCost"": 0.1, ""minTime"": 45, ""delays"": [0, 0, 0], ""actionTimes"": [24178, 24980, 25934], ""time_elapsed"": 986775, ""actions"": [""up"", ""up"", ""left""], ""trialIndex"": 8, ""score"": 35.5, ""trial_index"": 19, ""internal_node_id"": ""0.0-1.0-7.0"", ""clickTimes"": [3399, 4239, 4975, 6072, 7352, 8144, 8992, 10687, 13431, 14392, 15487, 16894, 18062, 19432, 20094], ""path"": [1, 3, 7, 12], ""trialID"": 6, ""clicks"": [""3"", ""4"", ""5"", ""2"", ""7"", ""12"", ""13"", ""8"", ""14"", ""15"", ""9"", ""16"", ""17"", ""6"", ""10""], ""condition"": 2}"
A110JBKYAC0WAW:37C0GNLMHF3Z7DGKP7M3XPWUJYWD6Z,20,1491513413056,"{""rt"": 5571, ""trial_type"": ""button-response"", ""button_pressed"": 0, ""stimulus"": ""<h1 id=\""thiscompletesthehit\"">This completes the HIT</h1>\n\n<p>One or your trials has been randomly selected and we will pay you 5% of your profit on that trial as a bonus. You will be awarded a bonus of $1.64</p>"", ""internal_node_id"": ""0.0-2.0"", ""time_elapsed"": 993375, ""trial_index"": 20}"
A12R2U6TBB3OOG:3KWTYT08703MML4YX5AMOWQZWCN5LR,0,1491511452259,"{""rt"": 133570, ""trial_type"": ""instructions"", ""view_history"": ""[{\""page_index\"":0,\""viewing_time\"":87847},{\""page_index\"":1,\""viewing_time\"":18491},{\""page_index\"":2,\""viewing_time\"":16181},{\""page_index\"":3,\""viewing_time\"":11051}]"", ""internal_node_id"": ""0.0-0.0-0.0"", ""time_elapsed"": 133572, ""trial_index"": 0}"
A12R2U6TBB3OOG:3KWTYT08703MML4YX5AMOWQZWCN5LR,1,1491511492569,"{""rt"": 37589, ""trial_type"": ""survey-multi-choice"", ""responses"": ""[\""2\"",\""True\"",\""$0.10\"",\""As many or as few as I wish\"",\""My earnings for each round are equal to the <i>sum</i> of the values of all locations I visit (minus the cost of making observations), and I will be paid the earnings from one of the 8 rounds.\"",\""All of the above.\""]"", ""internal_node_id"": ""0.0-0.0-1.0"", ""time_elapsed"": 173881, ""questions"": ""[\""How many flights are there per round?\"",\""True or false: The hidden values will change each time I start a new round.\"",\""How much does it cost to observe each hidden value?\"",\""How many hidden values am I allowed to observe in each round?\"",\""Which statement is TRUE?\"",\""What does the feedback teach me?\""]"", ""correct"": [false, true, true, true, true, true], ""trial_index"": 1}"
A12R2U6TBB3OOG:3KWTYT08703MML4YX5AMOWQZWCN5LR,2,1491511497921,"{""rt"": 4351, ""trial_type"": ""instructions"", ""view_history"": ""[{\""page_index\"":0,\""viewing_time\"":1800},{\""page_index\"":1,\""viewing_time\"":926},{\""page_index\"":2,\""viewing_time\"":926},{\""page_index\"":3,\""viewing_time\"":699}]"", ""internal_node_id"": ""0.0-0.1-0.1"", ""time_elapsed"": 179234, ""trial_index"": 2}"
A12R2U6TBB3OOG:3KWTYT08703MML4YX5AMOWQZWCN5LR,3,1491511521318,"{""rt"": 18932, ""trial_type"": ""survey-multi-choice"", ""responses"": ""[\""2\"",\""True\"",\""$0.10\"",\""As many or as few as I wish\"",\""My earnings for each round are equal to the <i>sum</i> of the values of all locations I visit (minus the cost of making observations), and I will be paid the earnings from one of the 8 rounds.\"",\""Whether I observed the rewards of relevant locations.\""]"", ""internal_node_id"": ""0.0-0.1-1.1"", ""time_elapsed"": 202631, ""questions"": ""[\""How many flights are there per round?\"",\""True or false: The hidden values will change each time I start a new round.\"",\""How much does it cost to observe each hidden value?\"",\""How many hidden values am I allowed to observe in each round?\"",\""Which statement is TRUE?\"",\""What does the feedback teach me?\""]"", ""correct"": [false, true, true, true, true, false], ""trial_index"": 3}"
A12R2U6TBB3OOG:3KWTYT08703MML4YX5AMOWQZWCN5LR,4,1491511526095,"{""rt"": 3776, ""trial_type"": ""instructions"", ""view_history"": ""[{\""page_index\"":0,\""viewing_time\"":1153},{\""page_index\"":1,\""viewing_time\"":656},{\""page_index\"":2,\""viewing_time\"":874},{\""page_index\"":3,\""viewing_time\"":1092}]"", ""internal_node_id"": ""0.0-0.2-0.2"", ""time_elapsed"": 207408, ""trial_index"": 4}"
A12R2U6TBB3OOG:3KWTYT08703MML4YX5AMOWQZWCN5LR,5,1491511536748,"{""rt"": 8571, ""trial_type"": ""survey-multi-choice"", ""responses"": ""[\""2\"",\""True\"",\""$0.10\"",\""As many or as few as I wish\"",\""My earnings for each round are equal to the <i>sum</i> of the values of all locations I visit (minus the cost of making observations), and I will be paid the earnings from one of the 8 rounds.\"",\""The duration of the delay tells me how much more money I could have earned by planning and deciding better.\""]"", ""internal_node_id"": ""0.0-0.2-1.2"", ""time_elapsed"": 218061, ""questions"": ""[\""How many flights are there per round?\"",\""True or false: The hidden values will change each time I start a new round.\"",\""How much does it cost to observe each hidden value?\"",\""How many hidden values am I allowed to observe in each round?\"",\""Which statement is TRUE?\"",\""What does the feedback teach me?\""]"", ""correct"": [false, true, true, true, true, false], ""trial_index"": 5}"
A12R2U6TBB3OOG:3KWTYT08703MML4YX5AMOWQZWCN5LR,6,1491511545180,"{""rt"": 7431, ""trial_type"": ""instructions"", ""view_history"": ""[{\""page_index\"":0,\""viewing_time\"":4596},{\""page_index\"":1,\""viewing_time\"":946},{\""page_index\"":2,\""viewing_time\"":951},{\""page_index\"":3,\""viewing_time\"":938}]"", ""internal_node_id"": ""0.0-0.3-0.3"", ""time_elapsed"": 226493, ""trial_index"": 6}"
A12R2U6TBB3OOG:3KWTYT08703MML4YX5AMOWQZWCN5LR,7,1491511560991,"{""rt"": 8052, ""trial_type"": ""survey-multi-choice"", ""responses"": ""[\""4\"",\""True\"",\""$0.10\"",\""As many or as few as I wish\"",\""My earnings for each round are equal to the <i>sum</i> of the values of all locations I visit (minus the cost of making observations), and I will be paid the earnings from one of the 8 rounds.\"",\""All of the above.\""]"", ""internal_node_id"": ""0.0-0.3-1.3"", ""time_elapsed"": 242304, ""questions"": ""[\""How many flights are there per round?\"",\""True or false: The hidden values will change each time I start a new round.\"",\""How much does it cost to observe each hidden value?\"",\""How many hidden values am I allowed to observe in each round?\"",\""Which statement is TRUE?\"",\""What does the feedback teach me?\""]"", ""correct"": [false, true, true, true, true, true], ""trial_index"": 7}"
A12R2U6TBB3OOG:3KWTYT08703MML4YX5AMOWQZWCN5LR,8,1491511574934,"{""rt"": 12942, ""trial_type"": ""instructions"", ""view_history"": ""[{\""page_index\"":0,\""viewing_time\"":10315},{\""page_index\"":1,\""viewing_time\"":520},{\""page_index\"":2,\""viewing_time\"":898},{\""page_index\"":3,\""viewing_time\"":1209}]"", ""internal_node_id"": ""0.0-0.4-0.4"", ""time_elapsed"": 256247, ""trial_index"": 8}"
A12R2U6TBB3OOG:3KWTYT08703MML4YX5AMOWQZWCN5LR,9,1491511582875,"{""rt"": 6923, ""trial_type"": ""survey-multi-choice"", ""responses"": ""[\""3\"",\""True\"",\""$0.10\"",\""As many or as few as I wish\"",\""My earnings for each round are equal to the <i>sum</i> of the values of all locations I visit (minus the cost of making observations), and I will be paid the earnings from one of the 8 rounds.\"",\""All of the above.\""]"", ""internal_node_id"": ""0.0-0.4-1.4"", ""time_elapsed"": 264188, ""questions"": ""[\""How many flights are there per round?\"",\""True or false: The hidden values will change each time I start a new round.\"",\""How much does it cost to observe each hidden value?\"",\""How many hidden values am I allowed to observe in each round?\"",\""Which statement is TRUE?\"",\""What does the feedback teach me?\""]"", ""correct"": [true, true, true, true, true, true], ""trial_index"": 9}"
A12R2U6TBB3OOG:3KWTYT08703MML4YX5AMOWQZWCN5LR,10,1491511707773,"{""rt"": [29890, 1236, 471], ""trial_type"": ""graph"", ""infoCost"": 0.1, ""minTime"": 45, ""delays"": [7, 0, 0], ""actionTimes"": [29890, 38887, 40228], ""time_elapsed"": 389086, ""actions"": [""right"", ""right"", ""up""], ""trialIndex"": 1, ""score"": 33, ""trial_index"": 10, ""internal_node_id"": ""0.0-1.0-0.0"", ""clickTimes"": [1748, 6133, 6844, 7867, 8998, 9484, 10395, 14413, 23417, 29369], ""path"": [1, 2, 6, 10], ""trialID"": 3, ""clicks"": [""2"", ""3"", ""4"", ""5"", ""17"", ""9"", ""16"", ""6"", ""10"", ""11""], ""condition"": 1}"
A12R2U6TBB3OOG:3KWTYT08703MML4YX5AMOWQZWCN5LR,11,1491511766122,"{""rt"": [26773, 355, 21], ""trial_type"": ""graph"", ""infoCost"": 0.1, ""minTime"": 45, ""delays"": [0, 0, 0], ""actionTimes"": [26773, 27653, 28392], ""time_elapsed"": 447435, ""actions"": [""right"", ""right"", ""up""], ""trialIndex"": 2, ""score"": 20.4, ""trial_index"": 11, ""internal_node_id"": ""0.0-1.0-1.0"", ""clickTimes"": [3528, 4378, 5330, 5860, 6856, 7974, 9403, 11026, 12356, 12904, 13878, 15003, 17996, 20334, 21105, 21697], ""path"": [1, 2, 6, 10], ""trialID"": 7, ""clicks"": [""2"", ""3"", ""4"", ""5"", ""6"", ""10"", ""11"", ""7"", ""12"", ""13"", ""8"", ""14"", ""15"", ""9"", ""16"", ""17""], ""condition"": 1}"
A12R2U6TBB3OOG:3KWTYT08703MML4YX5AMOWQZWCN5LR,12,1491511815285,"{""rt"": [24470, 89, 3], ""trial_type"": ""graph"", ""infoCost"": 0.1, ""minTime"": 45, ""delays"": [0, 0, 0], ""actionTimes"": [24470, 25221, 26048], ""time_elapsed"": 496598, ""actions"": [""left"", ""left"", ""up""], ""trialIndex"": 3, ""score"": 32.6, ""trial_index"": 12, ""internal_node_id"": ""0.0-1.0-2.0"", ""clickTimes"": [677, 2082, 2700, 3228, 3828, 5928, 6464, 7186, 8588, 14302, 15326, 17642, 20292, 20870], ""path"": [1, 4, 8, 14], ""trialID"": 5, ""clicks"": [""2"", ""3"", ""4"", ""5"", ""7"", ""12"", ""13"", ""8"", ""14"", ""15"", ""9"", ""6"", ""10"", ""11""], ""condition"": 1}"
A12R2U6TBB3OOG:3KWTYT08703MML4YX5AMOWQZWCN5LR,13,1491511864168,"{""rt"": [14523, 2, 2], ""trial_type"": ""graph"", ""infoCost"": 0.1, ""minTime"": 45, ""delays"": [-2, 0, 0], ""actionTimes"": [14523, 15306, 16139], ""time_elapsed"": 545481, ""actions"": [""down"", ""down"", ""left""], ""trialIndex"": 4, ""score"": 45, ""trial_index"": 13, ""internal_node_id"": ""0.0-1.0-3.0"", ""clickTimes"": [1622, 2585, 3289, 3867, 4714, 6832, 7303, 8498, 9699, 10315], ""path"": [1, 5, 9, 16], ""trialID"": 1, ""clicks"": [""2"", ""3"", ""4"", ""5"", ""7"", ""12"", ""13"", ""9"", ""17"", ""16""], ""condition"": 1}"
A12R2U6TBB3OOG:3KWTYT08703MML4YX5AMOWQZWCN5LR,14,1491511914204,"{""rt"": [20004, 137, 70], ""trial_type"": ""graph"", ""infoCost"": 0.1, ""minTime"": 45, ""delays"": [0, 0, 0], ""actionTimes"": [20005, 20665, 21449], ""time_elapsed"": 595517, ""actions"": [""right"", ""right"", ""up""], ""trialIndex"": 5, ""score"": 32.4, ""trial_index"": 14, ""internal_node_id"": ""0.0-1.0-4.0"", ""clickTimes"": [759, 1527, 2081, 2669, 3667, 5101, 6205, 7231, 7986, 11853, 14269, 15431, 16103, 17425, 17937, 18515], ""path"": [1, 2, 6, 10], ""trialID"": 2, ""clicks"": [""2"", ""3"", ""4"", ""5"", ""9"", ""16"", ""17"", ""6"", ""10"", ""11"", ""8"", ""14"", ""15"", ""7"", ""13"", ""12""], ""condition"": 1}"
A12R2U6TBB3OOG:3KWTYT08703MML4YX5AMOWQZWCN5LR,15,1491511961541,"{""rt"": [17089, 86, 1], ""trial_type"": ""graph"", ""infoCost"": 0.1, ""minTime"": 45, ""delays"": [-1, 0, 0], ""actionTimes"": [17090, 17871, 18628], ""time_elapsed"": 642854, ""actions"": [""left"", ""left"", ""down""], ""trialIndex"": 6, ""score"": 38.7, ""trial_index"": 15, ""internal_node_id"": ""0.0-1.0-5.0"", ""clickTimes"": [465, 1113, 2379, 2926, 4057, 4936, 5583, 6378, 7573, 8099, 11730, 12793, 14579], ""path"": [1, 4, 8, 15], ""trialID"": 0, ""clicks"": [""2"", ""3"", ""4"", ""5"", ""9"", ""16"", ""17"", ""7"", ""12"", ""13"", ""8"", ""14"", ""15""], ""condition"": 1}"
A12R2U6TBB3OOG:3KWTYT08703MML4YX5AMOWQZWCN5LR,16,1491512014711,"{""rt"": [20965, 268, 1], ""trial_type"": ""graph"", ""infoCost"": 0.1, ""minTime"": 45, ""delays"": [-1, 0, 0], ""actionTimes"": [20965, 22061, 22851], ""time_elapsed"": 696023, ""actions"": [""up"", ""up"", ""left""], ""trialIndex"": 7, ""score"": 35.7, ""trial_index"": 16, ""internal_node_id"": ""0.0-1.0-6.0"", ""clickTimes"": [1682, 2404, 3188, 3710, 4446, 5736, 10034, 11940, 13543, 14247, 16138, 17236, 19278], ""path"": [1, 3, 7, 12], ""trialID"": 6, ""clicks"": [""2"", ""3"", ""4"", ""5"", ""7"", ""12"", ""13"", ""8"", ""14"", ""15"", ""6"", ""10"", ""9""], ""condition"": 1}"
A12R2U6TBB3OOG:3KWTYT08703MML4YX5AMOWQZWCN5LR,17,1491512062619,"{""rt"": [12697, 20, 1], ""trial_type"": ""graph"", ""infoCost"": 0.1, ""minTime"": 45, ""delays"": [-1, 0, 0], ""actionTimes"": [12697, 13452, 14228], ""time_elapsed"": 743931, ""actions"": [""down"", ""down"", ""right""], ""trialIndex"": 8, ""score"": 41, ""trial_index"": 17, ""internal_node_id"": ""0.0-1.0-7.0"", ""clickTimes"": [495, 1169, 1713, 2227, 2875, 4357, 4997, 7993, 8859, 11323], ""path"": [1, 5, 9, 17], ""trialID"": 4, ""clicks"": [""2"", ""3"", ""4"", ""5"", ""8"", ""14"", ""15"", ""9"", ""17"", ""16""], ""condition"": 1}"
A12R2U6TBB3OOG:3KWTYT08703MML4YX5AMOWQZWCN5LR,18,1491512073285,"{""rt"": 9657, ""trial_type"": ""button-response"", ""button_pressed"": 0, ""stimulus"": ""<h1 id=\""thiscompletesthehit\"">This completes the HIT</h1>\n\n<p>One or your trials has been randomly selected and we will pay you 5% of your profit on that trial as a bonus. You will be awarded a bonus of $1.02</p>"", ""internal_node_id"": ""0.0-2.0"", ""time_elapsed"": 754598, ""trial_index"": 18}"
A15XX0WDRG29E7:3H8DHMCCW9B66S19RBG4781CL9SDKD,0,1492820632108,"{""rt"": 163460, ""trial_type"": ""instructions"", ""view_history"": ""[{\""page_index\"":0,\""viewing_time\"":43842},{\""page_index\"":1,\""viewing_time\"":44038},{\""page_index\"":2,\""viewing_time\"":53290},{\""page_index\"":3,\""viewing_time\"":22286}]"", ""internal_node_id"": ""0.0-0.0-0.0"", ""time_elapsed"": 163464, ""trial_index"": 0}"
A15XX0WDRG29E7:3H8DHMCCW9B66S19RBG4781CL9SDKD,1,1492820732642,"{""rt"": 95585, ""trial_type"": ""survey-multi-choice"", ""responses"": ""[\""1\"",\""True\"",\""$0.10\"",\""As many or as few as I wish\"",\""My earnings for each round are equal to the <i>sum</i> of the values of all locations I visit (minus the cost of making observations), and I will be paid the earnings from one of the 8 rounds.\"",\""Whether I chose the move that was best according to the information I had.\""]"", ""internal_node_id"": ""0.0-0.0-1.0"", ""time_elapsed"": 263998, ""questions"": ""[\""How many flights are there per round?\"",\""True or false: The hidden values will change each time I start a new round.\"",\""How much does it cost to observe each hidden value?\"",\""How many hidden values am I allowed to observe in each round?\"",\""Which statement is TRUE?\"",\""What does the feedback teach me?\""]"", ""correct"": [false, true, true, true, true, false], ""trial_index"": 1}"
A15XX0WDRG29E7:3H8DHMCCW9B66S19RBG4781CL9SDKD,2,1492820788755,"{""rt"": 55108, ""trial_type"": ""instructions"", ""view_history"": ""[{\""page_index\"":0,\""viewing_time\"":9017},{\""page_index\"":1,\""viewing_time\"":16713},{\""page_index\"":2,\""viewing_time\"":19626},{\""page_index\"":3,\""viewing_time\"":9752}]"", ""internal_node_id"": ""0.0-0.1-0.1"", ""time_elapsed"": 320111, ""trial_index"": 2}"
A15XX0WDRG29E7:3H8DHMCCW9B66S19RBG4781CL9SDKD,3,1492820830267,"{""rt"": 36464, ""trial_type"": ""survey-multi-choice"", ""responses"": ""[\""1\"",\""True\"",\""$0.10\"",\""As many or as few as I wish\"",\""My earnings for each round are equal to the value of one of the locations I visit (minus the cost of making observations), and I will actually be paid the earnings from one of the 8 rounds.\"",\""The duration of the delay tells me how much more money I could have earned by planning and deciding better.\""]"", ""internal_node_id"": ""0.0-0.1-1.1"", ""time_elapsed"": 361623, ""questions"": ""[\""How many flights are there per round?\"",\""True or false: The hidden values will change each time I start a new round.\"",\""How much does it cost to observe each hidden value?\"",\""How many hidden values am I allowed to observe in each round?\"",\""Which statement is TRUE?\"",\""What does the feedback teach me?\""]"", ""correct"": [false, true, true, true, false, false], ""trial_index"": 3}"
A15XX0WDRG29E7:3H8DHMCCW9B66S19RBG4781CL9SDKD,4,1492820843213,"{""rt"": 11939, ""trial_type"": ""instructions"", ""view_history"": ""[{\""page_index\"":0,\""viewing_time\"":2287},{\""page_index\"":1,\""viewing_time\"":1127},{\""page_index\"":2,\""viewing_time\"":5821},{\""page_index\"":3,\""viewing_time\"":2700}]"", ""internal_node_id"": ""0.0-0.2-0.2"", ""time_elapsed"": 374569, ""trial_index"": 4}"
A15XX0WDRG29E7:3H8DHMCCW9B66S19RBG4781CL9SDKD,5,1492820870303,"{""rt"": 20155, ""trial_type"": ""survey-multi-choice"", ""responses"": ""[\""1\"",\""True\"",\""$0.10\"",\""As many or as few as I wish\"",\""My earnings for each round are equal to the value of one of the locations I visit (minus the cost of making observations), and I will actually be paid the earnings from one of the 8 rounds.\"",\""All of the above.\""]"", ""internal_node_id"": ""0.0-0.2-1.2"", ""time_elapsed"": 401659, ""questions"": ""[\""How many flights are there per round?\"",\""True or false: The hidden values will change each time I start a new round.\"",\""How much does it cost to observe each hidden value?\"",\""How many hidden values am I allowed to observe in each round?\"",\""Which statement is TRUE?\"",\""What does the feedback teach me?\""]"", ""correct"": [false, true, true, true, false, true], ""trial_index"": 5}"
A15XX0WDRG29E7:3H8DHMCCW9B66S19RBG4781CL9SDKD,6,1492820946487,"{""rt"": 75178, ""trial_type"": ""instructions"", ""view_history"": ""[{\""page_index\"":0,\""viewing_time\"":43132},{\""page_index\"":1,\""viewing_time\"":6227},{\""page_index\"":2,\""viewing_time\"":22281},{\""page_index\"":3,\""viewing_time\"":3538}]"", ""internal_node_id"": ""0.0-0.3-0.3"", ""time_elapsed"": 477843, ""trial_index"": 6}"
A15XX0WDRG29E7:3H8DHMCCW9B66S19RBG4781CL9SDKD,7,1492821000244,"{""rt"": 47853, ""trial_type"": ""survey-multi-choice"", ""responses"": ""[\""1\"",\""True\"",\""$0.10\"",\""As many or as few as I wish\"",\""My earnings for each round are equal to the value of one of the locations I visit (minus the cost of making observations), and I will actually be paid the earnings from one of the 8 rounds.\"",\""The duration of the delay tells me how much more money I could have earned by planning and deciding better.\""]"", ""internal_node_id"": ""0.0-0.3-1.3"", ""time_elapsed"": 531600, ""questions"": ""[\""How many flights are there per round?\"",\""True or false: The hidden values will change each time I start a new round.\"",\""How much does it cost to observe each hidden value?\"",\""How many hidden values am I allowed to observe in each round?\"",\""Which statement is TRUE?\"",\""What does the feedback teach me?\""]"", ""correct"": [false, true, true, true, false, false], ""trial_index"": 7}"
A15XX0WDRG29E7:3H8DHMCCW9B66S19RBG4781CL9SDKD,8,1492821095346,"{""rt"": 94099, ""trial_type"": ""instructions"", ""view_history"": ""[{\""page_index\"":0,\""viewing_time\"":21587},{\""page_index\"":1,\""viewing_time\"":26108},{\""page_index\"":2,\""viewing_time\"":35378},{\""page_index\"":3,\""viewing_time\"":11026}]"", ""internal_node_id"": ""0.0-0.4-0.4"", ""time_elapsed"": 626702, ""trial_index"": 8}"
A15XX0WDRG29E7:3H8DHMCCW9B66S19RBG4781CL9SDKD,9,1492821182361,"{""rt"": 81625, ""trial_type"": ""survey-multi-choice"", ""responses"": ""[\""1\"",\""True\"",\""$0.10\"",\""As many or as few as I wish\"",\""My earnings for each round are equal to the <i>sum</i> of the values of all locations I visit (minus the cost of making observations), and I will be paid the earnings from one of the 8 rounds.\"",\""All of the above.\""]"", ""internal_node_id"": ""0.0-0.4-1.4"", ""time_elapsed"": 713717, ""questions"": ""[\""How many flights are there per round?\"",\""True or false: The hidden values will change each time I start a new round.\"",\""How much does it cost to observe each hidden value?\"",\""How many hidden values am I allowed to observe in each round?\"",\""Which statement is TRUE?\"",\""What does the feedback teach me?\""]"", ""correct"": [false, true, true, true, true, true], ""trial_index"": 9}"
A15XX0WDRG29E7:3H8DHMCCW9B66S19RBG4781CL9SDKD,10,1492821198699,"{""rt"": 15327, ""trial_type"": ""instructions"", ""view_history"": ""[{\""page_index\"":0,\""viewing_time\"":2369},{\""page_index\"":1,\""viewing_time\"":1758},{\""page_index\"":2,\""viewing_time\"":5415},{\""page_index\"":3,\""viewing_time\"":5785}]"", ""internal_node_id"": ""0.0-0.5-0.5"", ""time_elapsed"": 730055, ""trial_index"": 10}"
A15XX0WDRG29E7:3H8DHMCCW9B66S19RBG4781CL9SDKD,11,1492821250501,"{""rt"": 46921, ""trial_type"": ""survey-multi-choice"", ""responses"": ""[\""1\"",\""True\"",\""$0.10\"",\""As many or as few as I wish\"",\""My earnings for each round are equal to the value of one of the locations I visit (minus the cost of making observations), and I will actually be paid the earnings from one of the 8 rounds.\"",\""Whether I chose the move that was best according to the information I had.\""]"", ""internal_node_id"": ""0.0-0.5-1.5"", ""time_elapsed"": 781857, ""questions"": ""[\""How many flights are there per round?\"",\""True or false: The hidden values will change each time I start a new round.\"",\""How much does it cost to observe each hidden value?\"",\""How many hidden values am I allowed to observe in each round?\"",\""Which statement is TRUE?\"",\""What does the feedback teach me?\""]"", ""correct"": [false, true, true, true, false, false], ""trial_index"": 11}"
A15XX0WDRG29E7:3H8DHMCCW9B66S19RBG4781CL9SDKD,12,1492821341768,"{""rt"": 90257, ""trial_type"": ""instructions"", ""view_history"": ""[{\""page_index\"":0,\""viewing_time\"":16953},{\""page_index\"":1,\""viewing_time\"":41140},{\""page_index\"":2,\""viewing_time\"":23881},{\""page_index\"":3,\""viewing_time\"":8283}]"", ""internal_node_id"": ""0.0-0.6-0.6"", ""time_elapsed"": 873124, ""trial_index"": 12}"
A15XX0WDRG29E7:3H8DHMCCW9B66S19RBG4781CL9SDKD,13,1492821382908,"{""rt"": 32076, ""trial_type"": ""survey-multi-choice"", ""responses"": ""[\""1\"",\""True\"",\""$0.10\"",\""As many or as few as I wish\"",\""My earnings for each round are equal to the <i>sum</i> of the values of all locations I visit (minus the cost of making observations), and I will be paid the earnings from one of the 8 rounds.\"",\""All of the above.\""]"", ""internal_node_id"": ""0.0-0.6-1.6"", ""time_elapsed"": 914264, ""questions"": ""[\""How many flights are there per round?\"",\""True or false: The hidden values will change each time I start a new round.\"",\""How much does it cost to observe each hidden value?\"",\""How many hidden values am I allowed to observe in each round?\"",\""Which statement is TRUE?\"",\""What does the feedback teach me?\""]"", ""correct"": [false, true, true, true, true, true], ""trial_index"": 13}"
A15XX0WDRG29E7:3H8DHMCCW9B66S19RBG4781CL9SDKD,14,1492821393767,"{""rt"": 9843, ""trial_type"": ""instructions"", ""view_history"": ""[{\""page_index\"":0,\""viewing_time\"":1984},{\""page_index\"":1,\""viewing_time\"":1243},{\""page_index\"":2,\""viewing_time\"":4865},{\""page_index\"":3,\""viewing_time\"":1751}]"", ""internal_node_id"": ""0.0-0.7-0.7"", ""time_elapsed"": 925123, ""trial_index"": 14}"
A15XX0WDRG29E7:3H8DHMCCW9B66S19RBG4781CL9SDKD,15,1492821421718,"{""rt"": 23964, ""trial_type"": ""survey-multi-choice"", ""responses"": ""[\""1\"",\""True\"",\""$0.10\"",\""As many or as few as I wish\"",\""My earnings for each round are equal to the <i>sum</i> of the values of all locations I visit (minus the cost of making observations), and I will be paid the earnings from one of the 8 rounds.\"",\""The duration of the delay tells me how much more money I could have earned by planning and deciding better.\""]"", ""internal_node_id"": ""0.0-0.7-1.7"", ""time_elapsed"": 953074, ""questions"": ""[\""How many flights are there per round?\"",\""True or false: The hidden values will change each time I start a new round.\"",\""How much does it cost to observe each hidden value?\"",\""How many hidden values am I allowed to observe in each round?\"",\""Which statement is TRUE?\"",\""What does the feedback teach me?\""]"", ""correct"": [false, true, true, true, true, false], ""trial_index"": 15}"
A15XX0WDRG29E7:3H8DHMCCW9B66S19RBG4781CL9SDKD,16,1492821578501,"{""rt"": 155770, ""trial_type"": ""instructions"", ""view_history"": ""[{\""page_index\"":0,\""viewing_time\"":83001},{\""page_index\"":1,\""viewing_time\"":8052},{\""page_index\"":2,\""viewing_time\"":23810},{\""page_index\"":1,\""viewing_time\"":12392},{\""page_index\"":0,\""viewing_time\"":10697},{\""page_index\"":1,\""viewing_time\"":1194},{\""page_index\"":2,\""viewing_time\"":5592},{\""page_index\"":3,\""viewing_time\"":11032}]"", ""internal_node_id"": ""0.0-0.8-0.8"", ""time_elapsed"": 1109857, ""trial_index"": 16}"
A15XX0WDRG29E7:3H8DHMCCW9B66S19RBG4781CL9SDKD,17,1492821869677,"{""rt"": 290132, ""trial_type"": ""survey-multi-choice"", ""responses"": ""[\""3\"",\""True\"",\""$0.10\"",\""As many or as few as I wish\"",\""My earnings for each round are equal to the <i>sum</i> of the values of all locations I visit (minus the cost of making observations), and I will be paid the earnings from one of the 8 rounds.\"",\""All of the above.\""]"", ""internal_node_id"": ""0.0-0.8-1.8"", ""time_elapsed"": 1401033, ""questions"": ""[\""How many flights are there per round?\"",\""True or false: The hidden values will change each time I start a new round.\"",\""How much does it cost to observe each hidden value?\"",\""How many hidden values am I allowed to observe in each round?\"",\""Which statement is TRUE?\"",\""What does the feedback teach me?\""]"", ""correct"": [true, true, true, true, true, true], ""trial_index"": 17}"
A15XX0WDRG29E7:3H8DHMCCW9B66S19RBG4781CL9SDKD,18,1492821965892,"{""rt"": [27720, 24938, 1735], ""trial_type"": ""graph"", ""infoCost"": 0.1, ""minTime"": 45, ""delays"": [29, 3, 0], ""actionTimes"": [27720, 83309, 89577], ""time_elapsed"": 1497248, ""actions"": [""left"", ""left"", ""up""], ""trialIndex"": 1, ""score"": 32.5, ""trial_index"": 18, ""internal_node_id"": ""0.0-1.0-0.0"", ""clickTimes"": [2914, 10051, 11421, 12457, 15558, 19321, 20251, 64818, 66587, 67909, 70880, 72138, 79584, 80433, 81857], ""path"": [1, 4, 8, 14], ""trialID"": 5, ""clicks"": [""2"", ""5"", ""9"", ""16"", ""17"", ""4"", ""8"", ""3"", ""7"", ""12"", ""15"", ""14"", ""6"", ""10"", ""11""], ""condition"": 1}"
A15XX0WDRG29E7:3H8DHMCCW9B66S19RBG4781CL9SDKD,19,1492822022618,"{""rt"": [16669, 634, 47], ""trial_type"": ""graph"", ""infoCost"": 0.1, ""minTime"": 45, ""delays"": [7, 0, 0], ""actionTimes"": [16669, 25817, 27375], ""time_elapsed"": 1553974, ""actions"": [""right"", ""right"", ""up""], ""trialIndex"": 2, ""score"": 32.9, ""trial_index"": 19, ""internal_node_id"": ""0.0-1.0-1.0"", ""clickTimes"": [3152, 4542, 6035, 7760, 8687, 9444, 10547, 11870, 12864, 13609, 15208], ""path"": [1, 2, 6, 10], ""trialID"": 3, ""clicks"": [""4"", ""8"", ""15"", ""5"", ""9"", ""16"", ""17"", ""2"", ""6"", ""11"", ""10""], ""condition"": 1}"
A15XX0WDRG29E7:3H8DHMCCW9B66S19RBG4781CL9SDKD,20,1492822086023,"{""rt"": [8712, 1342, 3], ""trial_type"": ""graph"", ""infoCost"": 0.1, ""minTime"": 45, ""delays"": [12, 0, 2], ""actionTimes"": [8712, 23934, 25571], ""time_elapsed"": 1617379, ""actions"": [""right"", ""right"", ""up""], ""trialIndex"": 3, ""score"": 33.3, ""trial_index"": 20, ""internal_node_id"": ""0.0-1.0-2.0"", ""clickTimes"": [1483, 2266, 2977, 3834, 4833, 5664, 6458], ""path"": [1, 2, 6, 10], ""trialID"": 2, ""clicks"": [""3"", ""7"", ""12"", ""13"", ""2"", ""6"", ""10""], ""condition"": 1}"
A15XX0WDRG29E7:3H8DHMCCW9B66S19RBG4781CL9SDKD,21,1492822133270,"{""rt"": [15537, 2286, 0], ""trial_type"": ""graph"", ""infoCost"": 0.1, ""minTime"": 45, ""delays"": [0, 0, 0], ""actionTimes"": [15537, 18353, 19573], ""time_elapsed"": 1664626, ""actions"": [""right"", ""right"", ""up""], ""trialIndex"": 4, ""score"": 20.4, ""trial_index"": 21, ""internal_node_id"": ""0.0-1.0-3.0"", ""clickTimes"": [1149, 1844, 2805, 3946, 4827, 5504, 6134, 7045, 8353, 8948, 10029, 10765, 11808, 12463, 13363, 14257], ""path"": [1, 2, 6, 10], ""trialID"": 7, ""clicks"": [""4"", ""8"", ""14"", ""15"", ""5"", ""9"", ""16"", ""17"", ""3"", ""7"", ""12"", ""13"", ""10"", ""6"", ""11"", ""2""], ""condition"": 1}"
A15XX0WDRG29E7:3H8DHMCCW9B66S19RBG4781CL9SDKD,22,1492822185245,"{""rt"": [22239, 1387, 4], ""trial_type"": ""graph"", ""infoCost"": 0.1, ""minTime"": 45, ""delays"": [-1, 0, 0], ""actionTimes"": [22239, 24652, 26048], ""time_elapsed"": 1716601, ""actions"": [""left"", ""left"", ""down""], ""trialIndex"": 5, ""score"": 38.7, ""trial_index"": 22, ""internal_node_id"": ""0.0-1.0-4.0"", ""clickTimes"": [2279, 3627, 4808, 5614, 6847, 7717, 8354, 9335, 10818, 11984, 12937, 14014, 16147], ""path"": [1, 4, 8, 15], ""trialID"": 0, ""clicks"": [""2"", ""3"", ""7"", ""12"", ""5"", ""9"", ""16"", ""17"", ""4"", ""8"", ""15"", ""14"", ""13""], ""condition"": 1}"
A15XX0WDRG29E7:3H8DHMCCW9B66S19RBG4781CL9SDKD,23,1492822235469,"{""rt"": [13768, 0, 13], ""trial_type"": ""graph"", ""infoCost"": 0.1, ""minTime"": 45, ""delays"": [0, 0, 0], ""actionTimes"": [13768, 14766, 16173], ""time_elapsed"": 1766825, ""actions"": [""down"", ""down"", ""left""], ""trialIndex"": 6, ""score"": 44.8, ""trial_index"": 23, ""internal_node_id"": ""0.0-1.0-5.0"", ""clickTimes"": [1252, 1871, 2638, 3845, 5348, 5964, 7088, 8463, 9457, 10186, 10795, 11665], ""path"": [1, 5, 9, 16], ""trialID"": 1, ""clicks"": [""3"", ""7"", ""12"", ""13"", ""2"", ""6"", ""10"", ""11"", ""5"", ""9"", ""16"", ""17""], ""condition"": 1}"
A15XX0WDRG29E7:3H8DHMCCW9B66S19RBG4781CL9SDKD,24,1492822288391,"{""rt"": [8672, 1157, 2248], ""trial_type"": ""graph"", ""infoCost"": 0.1, ""minTime"": 45, ""delays"": [4, 0, 0], ""actionTimes"": [8672, 15141, 18909], ""time_elapsed"": 1819747, ""actions"": [""down"", ""down"", ""right""], ""trialIndex"": 7, ""score"": 41.2, ""trial_index"": 24, ""internal_node_id"": ""0.0-1.0-6.0"", ""clickTimes"": [1640, 2335, 3009, 4116, 5316, 6001, 6539, 7229], ""path"": [1, 5, 9, 17], ""trialID"": 4, ""clicks"": [""4"", ""8"", ""14"", ""15"", ""5"", ""9"", ""16"", ""17""], ""condition"": 1}"
A15XX0WDRG29E7:3H8DHMCCW9B66S19RBG4781CL9SDKD,25,1492822336385,"{""rt"": [15844, 79, 2], ""trial_type"": ""graph"", ""infoCost"": 0.1, ""minTime"": 45, ""delays"": [-1, 0, 0], ""actionTimes"": [15844, 17270, 18848], ""time_elapsed"": 1867741, ""actions"": [""up"", ""up"", ""left""], ""trialIndex"": 8, ""score"": 36, ""trial_index"": 25, ""internal_node_id"": ""0.0-1.0-7.0"", ""clickTimes"": [1473, 2720, 3428, 4242, 5985, 7535, 9192, 10500, 11361, 13136], ""path"": [1, 3, 7, 12], ""trialID"": 6, ""clicks"": [""3"", ""7"", ""12"", ""13"", ""2"", ""4"", ""8"", ""14"", ""15"", ""5""], ""condition"": 1}"
A15XX0WDRG29E7:3H8DHMCCW9B66S19RBG4781CL9SDKD,26,1492822340859,"{""rt"": 3443, ""trial_type"": ""button-response"", ""button_pressed"": 0, ""stimulus"": ""<h1 id=\""thiscompletesthehit\"">This completes the HIT</h1>\n\n<p>One or your trials has been randomly selected and we will pay you 5% of your profit on that trial as a bonus. You will be awarded a bonus of $1.02</p>"", ""internal_node_id"": ""0.0-2.0"", ""time_elapsed"": 1872215, ""trial_index"": 26}"
A16ANYLVNPKCVG:3URFVVM165INCPBHD7934NTDA2NZUL,0,1491511498789,"{""rt"": 255655, ""trial_type"": ""instructions"", ""view_history"": ""[{\""page_index\"":0,\""viewing_time\"":81169},{\""page_index\"":1,\""viewing_time\"":112189},{\""page_index\"":2,\""viewing_time\"":46044},{\""page_index\"":3,\""viewing_time\"":16252}]"", ""internal_node_id"": ""0.0-0.0-0.0"", ""time_elapsed"": 255655, ""trial_index"": 0}"
A16ANYLVNPKCVG:3URFVVM165INCPBHD7934NTDA2NZUL,1,1491511564855,"{""rt"": 62198, ""trial_type"": ""survey-multi-choice"", ""responses"": ""[\""2\"",\""True\"",\""$0.10\"",\""As many or as few as I wish\"",\""My earnings for each round are equal to the <i>sum</i> of the values of all locations I visit (minus the cost of making observations), and I will be paid the earnings from one of the 8 rounds.\"",\""All of the above.\""]"", ""internal_node_id"": ""0.0-0.0-1.0"", ""time_elapsed"": 321721, ""questions"": ""[\""How many flights are there per round?\"",\""True or false: The hidden values will change each time I start a new round.\"",\""How much does it cost to observe each hidden value?\"",\""How many hidden values am I allowed to observe in each round?\"",\""Which statement is TRUE?\"",\""What does the feedback teach me?\""]"", ""correct"": [false, true, true, true, true, true], ""trial_index"": 1}"
A16ANYLVNPKCVG:3URFVVM165INCPBHD7934NTDA2NZUL,2,1491511622874,"{""rt"": 57018, ""trial_type"": ""instructions"", ""view_history"": ""[{\""page_index\"":0,\""viewing_time\"":13732},{\""page_index\"":1,\""viewing_time\"":22107},{\""page_index\"":2,\""viewing_time\"":9472},{\""page_index\"":3,\""viewing_time\"":11706}]"", ""internal_node_id"": ""0.0-0.1-0.1"", ""time_elapsed"": 379740, ""trial_index"": 2}"
A16ANYLVNPKCVG:3URFVVM165INCPBHD7934NTDA2NZUL,3,1491511672411,"{""rt"": 48526, ""trial_type"": ""survey-multi-choice"", ""responses"": ""[\""3\"",\""True\"",\""$0.10\"",\""As many or as few as I wish\"",\""My earnings for each round are equal to the <i>sum</i> of the values of all locations I visit (minus the cost of making observations), and I will be paid the earnings from one of the 8 rounds.\"",\""All of the above.\""]"", ""internal_node_id"": ""0.0-0.1-1.1"", ""time_elapsed"": 429277, ""questions"": ""[\""How many flights are there per round?\"",\""True or false: The hidden values will change each time I start a new round.\"",\""How much does it cost to observe each hidden value?\"",\""How many hidden values am I allowed to observe in each round?\"",\""Which statement is TRUE?\"",\""What does the feedback teach me?\""]"", ""correct"": [true, true, true, true, true, true], ""trial_index"": 3}"
A16ANYLVNPKCVG:3URFVVM165INCPBHD7934NTDA2NZUL,4,1491511728744,"{""rt"": [20673, 4261, 4227], ""trial_type"": ""graph"", ""infoCost"": 0.1, ""minTime"": 45, ""delays"": [3.18, 0, 0], ""actionTimes"": [20673, 29001, 34071], ""time_elapsed"": 485610, ""actions"": [""right"", ""right"", ""up""], ""trialIndex"": 1, ""score"": 33.6, ""trial_index"": 4, ""internal_node_id"": ""0.0-1.0-0.0"", ""clickTimes"": [9451, 12348, 14428, 32949], ""path"": [1, 2, 6, 10], ""trialID"": 3, ""clicks"": [""2"", ""6"", ""10"", ""11""], ""condition"": 3}"
A16ANYLVNPKCVG:3URFVVM165INCPBHD7934NTDA2NZUL,5,1491511780161,"{""rt"": [18927, 2423, 1353], ""trial_type"": ""graph"", ""infoCost"": 0.1, ""minTime"": 45, ""delays"": [3.18, 0, 0], ""actionTimes"": [18927, 25206, 27363], ""time_elapsed"": 537027, ""actions"": [""up"", ""up"", ""left""], ""trialIndex"": 2, ""score"": 36, ""trial_index"": 5, ""internal_node_id"": ""0.0-1.0-1.0"", ""clickTimes"": [1945, 3525, 5177, 6100, 7766, 8864, 11369, 12238, 13074, 13782], ""path"": [1, 3, 7, 12], ""trialID"": 6, ""clicks"": [""4"", ""3"", ""2"", ""5"", ""7"", ""8"", ""13"", ""12"", ""14"", ""15""], ""condition"": 3}"
A16ANYLVNPKCVG:3URFVVM165INCPBHD7934NTDA2NZUL,6,1491511854880,"{""rt"": [27879, 1164, 1806], ""trial_type"": ""graph"", ""infoCost"": 0.1, ""minTime"": 45, ""delays"": [3.18, 0, 0], ""actionTimes"": [27879, 32712, 35264], ""time_elapsed"": 611746, ""actions"": [""right"", ""right"", ""up""], ""trialIndex"": 3, ""score"": 20.4, ""trial_index"": 6, ""internal_node_id"": ""0.0-1.0-2.0"", ""clickTimes"": [1012, 1735, 2564, 3100, 4223, 4904, 7936, 9929, 10455, 11100, 12279, 12702, 13232, 13849, 14255, 14684], ""path"": [1, 2, 6, 10], ""trialID"": 7, ""clicks"": [""2"", ""3"", ""4"", ""5"", ""6"", ""10"", ""11"", ""7"", ""12"", ""13"", ""8"", ""14"", ""15"", ""16"", ""9"", ""17""], ""condition"": 3}"
A16ANYLVNPKCVG:3URFVVM165INCPBHD7934NTDA2NZUL,7,1491511914657,"{""rt"": [27468, 5104, 762], ""trial_type"": ""graph"", ""infoCost"": 0.1, ""minTime"": 45, ""delays"": [3.18, 0, 0], ""actionTimes"": [27468, 36408, 37962], ""time_elapsed"": 671523, ""actions"": [""left"", ""left"", ""up""], ""trialIndex"": 4, ""score"": 32.5, ""trial_index"": 7, ""internal_node_id"": ""0.0-1.0-3.0"", ""clickTimes"": [1308, 2748, 4147, 5313, 6593, 8213, 8842, 10594, 12136, 13223, 15270, 16651, 19333, 23237, 23886], ""path"": [1, 4, 8, 14], ""trialID"": 5, ""clicks"": [""3"", ""4"", ""2"", ""5"", ""7"", ""12"", ""13"", ""8"", ""14"", ""15"", ""9"", ""16"", ""6"", ""10"", ""11""], ""condition"": 3}"
A16ANYLVNPKCVG:3URFVVM165INCPBHD7934NTDA2NZUL,8,1491511965617,"{""rt"": [15965, 3061, 369], ""trial_type"": ""graph"", ""infoCost"": 0.1, ""minTime"": 45, ""delays"": [3.18, 0, 0], ""actionTimes"": [15965, 22812, 23955], ""time_elapsed"": 722483, ""actions"": [""right"", ""right"", ""up""], ""trialIndex"": 5, ""score"": 32.7, ""trial_index"": 8, ""internal_node_id"": ""0.0-1.0-4.0"", ""clickTimes"": [1450, 2217, 2771, 3388, 4396, 4874, 5556, 6400, 6919, 7421, 9302, 9969, 10711], ""path"": [1, 2, 6, 10], ""trialID"": 2, ""clicks"": [""4"", ""3"", ""2"", ""5"", ""9"", ""16"", ""17"", ""8"", ""14"", ""15"", ""6"", ""10"", ""11""], ""condition"": 3}"
A16ANYLVNPKCVG:3URFVVM165INCPBHD7934NTDA2NZUL,9,1491512048348,"{""rt"": [20427, 892, 410], ""trial_type"": ""graph"", ""infoCost"": 0.1, ""minTime"": 45, ""delays"": [3.18, 0, 0], ""actionTimes"": [20427, 25103, 26283], ""time_elapsed"": 805214, ""actions"": [""left"", ""left"", ""up""], ""trialIndex"": 6, ""score"": 38.7, ""trial_index"": 9, ""internal_node_id"": ""0.0-1.0-5.0"", ""clickTimes"": [1029, 1931, 2651, 3300, 4639, 6688, 7197, 8487, 8992, 9538, 11427, 11831, 16990], ""path"": [1, 4, 8, 14], ""trialID"": 0, ""clicks"": [""2"", ""3"", ""4"", ""5"", ""9"", ""16"", ""17"", ""7"", ""12"", ""13"", ""8"", ""14"", ""15""], ""condition"": 3}"
A16ANYLVNPKCVG:3URFVVM165INCPBHD7934NTDA2NZUL,10,1491512099106,"{""rt"": [14101, 564, 45], ""trial_type"": ""graph"", ""infoCost"": 0.1, ""minTime"": 45, ""delays"": [3.18, 0, 0], ""actionTimes"": [14101, 18532, 19383], ""time_elapsed"": 855971, ""actions"": [""down"", ""down"", ""right""], ""trialIndex"": 7, ""score"": 41, ""trial_index"": 10, ""internal_node_id"": ""0.0-1.0-6.0"", ""clickTimes"": [2410, 3030, 3716, 4380, 5739, 7205, 8062, 9398, 10385, 11239], ""path"": [1, 5, 9, 17], ""trialID"": 4, ""clicks"": [""2"", ""3"", ""4"", ""5"", ""8"", ""14"", ""15"", ""9"", ""16"", ""17""], ""condition"": 3}"
A16ANYLVNPKCVG:3URFVVM165INCPBHD7934NTDA2NZUL,11,1491512150226,"{""rt"": [13703, 513, 75], ""trial_type"": ""graph"", ""infoCost"": 0.1, ""minTime"": 45, ""delays"": [3.18, 0, 0], ""actionTimes"": [13703, 18121, 19013], ""time_elapsed"": 907092, ""actions"": [""down"", ""down"", ""left""], ""trialIndex"": 8, ""score"": 45, ""trial_index"": 11, ""internal_node_id"": ""0.0-1.0-7.0"", ""clickTimes"": [1243, 2601, 3807, 5797, 7022, 8111, 8784, 10272, 11048, 12153], ""path"": [1, 5, 9, 16], ""trialID"": 1, ""clicks"": [""3"", ""2"", ""5"", ""4"", ""7"", ""12"", ""13"", ""9"", ""16"", ""17""], ""condition"": 3}"
A16ANYLVNPKCVG:3URFVVM165INCPBHD7934NTDA2NZUL,12,1491512156570,"{""rt"": 5334, ""trial_type"": ""button-response"", ""button_pressed"": 0, ""stimulus"": ""<h1 id=\""thiscompletesthehit\"">This completes the HIT</h1>\n\n<p>One or your trials has been randomly selected and we will pay you 5% of your profit on that trial as a bonus. You will be awarded a bonus of $1.94</p>"", ""internal_node_id"": ""0.0-2.0"", ""time_elapsed"": 913436, ""trial_index"": 12}"
A16BLPK5DB2XGM:3OJSZ2ATDSWN70FWTB9C5R8Y28Z57W,0,1492823244735,"{""rt"": 110577, ""trial_type"": ""instructions"", ""view_history"": ""[{\""page_index\"":0,\""viewing_time\"":33518},{\""page_index\"":1,\""viewing_time\"":57424},{\""page_index\"":2,\""viewing_time\"":19633}]"", ""internal_node_id"": ""0.0-0.0-0.0"", ""time_elapsed"": 110581, ""trial_index"": 0}"
A16BLPK5DB2XGM:3OJSZ2ATDSWN70FWTB9C5R8Y28Z57W,1,1492823299393,"{""rt"": 53416, ""trial_type"": ""survey-multi-choice"", ""responses"": ""[\""3\"",\""True\"",\""$0.10\"",\""As many or as few as I wish\"",\""My earnings for each round are equal to the <i>sum</i> of the values of all locations I visit (minus the cost of making observations), and I will be paid the earnings from one of the 8 rounds.\""]"", ""internal_node_id"": ""0.0-0.0-1.0"", ""time_elapsed"": 165239, ""questions"": ""[\""How many flights are there per round?\"",\""True or false: The hidden values will change each time I start a new round.\"",\""How much does it cost to observe each hidden value?\"",\""How many hidden values am I allowed to observe in each round?\"",\""Which statement is TRUE?\""]"", ""correct"": [true, true, true, true, true], ""trial_index"": 1}"
A16BLPK5DB2XGM:3OJSZ2ATDSWN70FWTB9C5R8Y28Z57W,2,1492823372905,"{""rt"": [7154, 2063, 523], ""trial_type"": ""graph"", ""infoCost"": 0.1, ""minTime"": 45, ""delays"": [3.18, 0, 0], ""actionTimes"": [7157, 14555, 17404], ""time_elapsed"": 238750, ""actions"": [""left"", ""left"", ""up""], ""trialIndex"": 1, ""score"": 34, ""trial_index"": 2, ""internal_node_id"": ""0.0-1.0-0.0"", ""clickTimes"": [], ""path"": [1, 4, 8, 14], ""trialID"": 5, ""clicks"": [], ""condition"": 0}"
A16BLPK5DB2XGM:3OJSZ2ATDSWN70FWTB9C5R8Y28Z57W,3,1492823441535,"{""rt"": [7700, 1441, 7142], ""trial_type"": ""graph"", ""infoCost"": 0.1, ""minTime"": 45, ""delays"": [3.18, 0, 0], ""actionTimes"": [7700, 17428, 29770], ""time_elapsed"": 307382, ""actions"": [""right"", ""right"", ""down""], ""trialIndex"": 2, ""score"": 0, ""trial_index"": 3, ""internal_node_id"": ""0.0-1.0-1.0"", ""clickTimes"": [], ""path"": [1, 2, 6, 11], ""trialID"": 4, ""clicks"": [], ""condition"": 0}"
A16BLPK5DB2XGM:3OJSZ2ATDSWN70FWTB9C5R8Y28Z57W,4,1492823496894,"{""rt"": [2803, 2261, 3], ""trial_type"": ""graph"", ""infoCost"": 0.1, ""minTime"": 45, ""delays"": [3.18, 0, 0], ""actionTimes"": [2804, 10795, 14795], ""time_elapsed"": 362740, ""actions"": [""up"", ""up"", ""right""], ""trialIndex"": 3, ""score"": 21, ""trial_index"": 4, ""internal_node_id"": ""0.0-1.0-2.0"", ""clickTimes"": [], ""path"": [1, 3, 7, 13], ""trialID"": 1, ""clicks"": [], ""condition"": 0}"
A16BLPK5DB2XGM:3OJSZ2ATDSWN70FWTB9C5R8Y28Z57W,5,1492823563030,"{""rt"": [4552, 657, 3], ""trial_type"": ""graph"", ""infoCost"": 0.1, ""minTime"": 45, ""delays"": [3.18, 0, 0], ""actionTimes"": [4553, 12123, 15259], ""time_elapsed"": 428876, ""actions"": [""right"", ""right"", ""up""], ""trialIndex"": 4, ""score"": 8, ""trial_index"": 5, ""internal_node_id"": ""0.0-1.0-3.0"", ""clickTimes"": [], ""path"": [1, 2, 6, 10], ""trialID"": 0, ""clicks"": [], ""condition"": 0}"
A16BLPK5DB2XGM:3OJSZ2ATDSWN70FWTB9C5R8Y28Z57W,6,1492823625139,"{""rt"": [4648, 4012, 3], ""trial_type"": ""graph"", ""infoCost"": 0.1, ""minTime"": 45, ""delays"": [3.18, 0, 0], ""actionTimes"": [4649, 18786, 20829], ""time_elapsed"": 490985, ""actions"": [""left"", ""left"", ""down""], ""trialIndex"": 5, ""score"": 28, ""trial_index"": 6, ""internal_node_id"": ""0.0-1.0-4.0"", ""clickTimes"": [], ""path"": [1, 4, 8, 15], ""trialID"": 6, ""clicks"": [], ""condition"": 0}"
A16BLPK5DB2XGM:3OJSZ2ATDSWN70FWTB9C5R8Y28Z57W,7,1492823687588,"{""rt"": [2115, 6732, 1415], ""trial_type"": ""graph"", ""infoCost"": 0.1, ""minTime"": 45, ""delays"": [3.18, 0, 0], ""actionTimes"": [2115, 16350, 20839], ""time_elapsed"": 553435, ""actions"": [""left"", ""left"", ""up""], ""trialIndex"": 6, ""score"": 4, ""trial_index"": 7, ""internal_node_id"": ""0.0-1.0-5.0"", ""clickTimes"": [], ""path"": [1, 4, 8, 14], ""trialID"": 3, ""clicks"": [], ""condition"": 0}"
A16BLPK5DB2XGM:3OJSZ2ATDSWN70FWTB9C5R8Y28Z57W,8,1492823741468,"{""rt"": [4636, 3337, 993], ""trial_type"": ""graph"", ""infoCost"": 0.1, ""minTime"": 45, ""delays"": [3.18, 0, 0], ""actionTimes"": [4636, 13104, 16067], ""time_elapsed"": 607315, ""actions"": [""left"", ""left"", ""down""], ""trialIndex"": 7, ""score"": 6, ""trial_index"": 8, ""internal_node_id"": ""0.0-1.0-6.0"", ""clickTimes"": [], ""path"": [1, 4, 8, 15], ""trialID"": 7, ""clicks"": [], ""condition"": 0}"
A16BLPK5DB2XGM:3OJSZ2ATDSWN70FWTB9C5R8Y28Z57W,9,1492823801090,"{""rt"": [9894, 1354, 3], ""trial_type"": ""graph"", ""infoCost"": 0.1, ""minTime"": 45, ""delays"": [3.18, 0, 0], ""actionTimes"": [9894, 17436, 20188], ""time_elapsed"": 666936, ""actions"": [""down"", ""down"", ""left""], ""trialIndex"": 8, ""score"": 4, ""trial_index"": 9, ""internal_node_id"": ""0.0-1.0-7.0"", ""clickTimes"": [], ""path"": [1, 5, 9, 16], ""trialID"": 2, ""clicks"": [], ""condition"": 0}"
A16BLPK5DB2XGM:3OJSZ2ATDSWN70FWTB9C5R8Y28Z57W,10,1492823807609,"{""rt"": 5420, ""trial_type"": ""button-response"", ""button_pressed"": 0, ""stimulus"": ""<h1 id=\""thiscompletesthehit\"">This completes the HIT</h1>\n\n<p>One or your trials has been randomly selected and we will pay you 5% of your profit on that trial as a bonus. You will be awarded a bonus of $1.70</p>"", ""internal_node_id"": ""0.0-2.0"", ""time_elapsed"": 673456, ""trial_index"": 10}"
A16SJ5D3DKUEXJ:3VBEN272MKZ76VO8YAQE4FVJFVSGSE,0,1492825174569,"{""rt"": 179316, ""trial_type"": ""instructions"", ""view_history"": ""[{\""page_index\"":0,\""viewing_time\"":30144},{\""page_index\"":1,\""viewing_time\"":43933},{\""page_index\"":2,\""viewing_time\"":32285},{\""page_index\"":3,\""viewing_time\"":18032},{\""page_index\"":2,\""viewing_time\"":1194},{\""page_index\"":1,\""viewing_time\"":687},{\""page_index\"":0,\""viewing_time\"":19184},{\""page_index\"":1,\""viewing_time\"":4726},{\""page_index\"":2,\""viewing_time\"":20551},{\""page_index\"":3,\""viewing_time\"":8578}]"", ""internal_node_id"": ""0.0-0.0-0.0"", ""time_elapsed"": 179318, ""trial_index"": 0}"
A16SJ5D3DKUEXJ:3VBEN272MKZ76VO8YAQE4FVJFVSGSE,1,1492825225133,"{""rt"": 46780, ""trial_type"": ""survey-multi-choice"", ""responses"": ""[\""1\"",\""True\"",\""$0.10\"",\""As many or as few as I wish\"",\""My earnings for each round are equal to the <i>sum</i> of the values of all locations I visit (minus the cost of making observations), and I will be paid the earnings from one of the 8 rounds.\"",\""True\""]"", ""internal_node_id"": ""0.0-0.0-1.0"", ""time_elapsed"": 229881, ""questions"": ""[\""How many flights are there per round?\"",\""True or false: The hidden values will change each time I start a new round.\"",\""How much does it cost to observe each hidden value?\"",\""How many hidden values am I allowed to observe in each round?\"",\""Which statement is TRUE?\"",\""True of false: The duration of the delay tells me how much more money I could have earned by planning and deciding better.\""]"", ""correct"": [false, true, true, true, true, true], ""trial_index"": 1}"
A16SJ5D3DKUEXJ:3VBEN272MKZ76VO8YAQE4FVJFVSGSE,2,1492825290678,"{""rt"": 64540, ""trial_type"": ""instructions"", ""view_history"": ""[{\""page_index\"":0,\""viewing_time\"":25218},{\""page_index\"":1,\""viewing_time\"":22695},{\""page_index\"":2,\""viewing_time\"":6453},{\""page_index\"":3,\""viewing_time\"":10173}]"", ""internal_node_id"": ""0.0-0.1-0.1"", ""time_elapsed"": 295427, ""trial_index"": 2}"
A16SJ5D3DKUEXJ:3VBEN272MKZ76VO8YAQE4FVJFVSGSE,3,1492825369194,"{""rt"": 74288, ""trial_type"": ""survey-multi-choice"", ""responses"": ""[\""1\"",\""True\"",\""$0.10\"",\""As many or as few as I wish\"",\""My earnings for each round are equal to the value of one of the locations I visit (minus the cost of making observations), and I will actually be paid the earnings from one of the 8 rounds.\"",\""True\""]"", ""internal_node_id"": ""0.0-0.1-1.1"", ""time_elapsed"": 373943, ""questions"": ""[\""How many flights are there per round?\"",\""True or false: The hidden values will change each time I start a new round.\"",\""How much does it cost to observe each hidden value?\"",\""How many hidden values am I allowed to observe in each round?\"",\""Which statement is TRUE?\"",\""True of false: The duration of the delay tells me how much more money I could have earned by planning and deciding better.\""]"", ""correct"": [false, true, true, true, false, true], ""trial_index"": 3}"
A16SJ5D3DKUEXJ:3VBEN272MKZ76VO8YAQE4FVJFVSGSE,4,1492825522071,"{""rt"": 151874, ""trial_type"": ""instructions"", ""view_history"": ""[{\""page_index\"":0,\""viewing_time\"":64568},{\""page_index\"":1,\""viewing_time\"":28696},{\""page_index\"":2,\""viewing_time\"":1547},{\""page_index\"":1,\""viewing_time\"":1719},{\""page_index\"":2,\""viewing_time\"":22379},{\""page_index\"":3,\""viewing_time\"":32963}]"", ""internal_node_id"": ""0.0-0.2-0.2"", ""time_elapsed"": 526820, ""trial_index"": 4}"
A16SJ5D3DKUEXJ:3VBEN272MKZ76VO8YAQE4FVJFVSGSE,5,1492825599570,"{""rt"": 74859, ""trial_type"": ""survey-multi-choice"", ""responses"": ""[\""1\"",\""True\"",\""$0.10\"",\""As many or as few as I wish\"",\""My earnings for each round are equal to the <i>sum</i> of the values of all locations I visit (minus the cost of making observations), and I will be paid the earnings from one of the 8 rounds.\"",\""True\""]"", ""internal_node_id"": ""0.0-0.2-1.2"", ""time_elapsed"": 604318, ""questions"": ""[\""How many flights are there per round?\"",\""True or false: The hidden values will change each time I start a new round.\"",\""How much does it cost to observe each hidden value?\"",\""How many hidden values am I allowed to observe in each round?\"",\""Which statement is TRUE?\"",\""True of false: The duration of the delay tells me how much more money I could have earned by planning and deciding better.\""]"", ""correct"": [false, true, true, true, true, true], ""trial_index"": 5}"
A16SJ5D3DKUEXJ:3VBEN272MKZ76VO8YAQE4FVJFVSGSE,6,1492825604249,"{""rt"": 3673, ""trial_type"": ""instructions"", ""view_history"": ""[{\""page_index\"":0,\""viewing_time\"":1344},{\""page_index\"":1,\""viewing_time\"":781},{\""page_index\"":2,\""viewing_time\"":710},{\""page_index\"":3,\""viewing_time\"":837}]"", ""internal_node_id"": ""0.0-0.3-0.3"", ""time_elapsed"": 608998, ""trial_index"": 6}"
A16SJ5D3DKUEXJ:3VBEN272MKZ76VO8YAQE4FVJFVSGSE,7,1492825619413,"{""rt"": 12500, ""trial_type"": ""survey-multi-choice"", ""responses"": ""[\""1\"",\""True\"",\""$0.10\"",\""As many or as few as I wish\"",\""My earnings for each round are equal to the <i>sum</i> of the values of all locations I visit (minus the cost of making observations), but these earnings aren't real money.\"",\""True\""]"", ""internal_node_id"": ""0.0-0.3-1.3"", ""time_elapsed"": 624161, ""questions"": ""[\""How many flights are there per round?\"",\""True or false: The hidden values will change each time I start a new round.\"",\""How much does it cost to observe each hidden value?\"",\""How many hidden values am I allowed to observe in each round?\"",\""Which statement is TRUE?\"",\""True of false: The duration of the delay tells me how much more money I could have earned by planning and deciding better.\""]"", ""correct"": [false, true, true, true, false, true], ""trial_index"": 7}"
A16SJ5D3DKUEXJ:3VBEN272MKZ76VO8YAQE4FVJFVSGSE,8,1492825625178,"{""rt"": 4763, ""trial_type"": ""instructions"", ""view_history"": ""[{\""page_index\"":0,\""viewing_time\"":1770},{\""page_index\"":1,\""viewing_time\"":1170},{\""page_index\"":2,\""viewing_time\"":947},{\""page_index\"":3,\""viewing_time\"":875}]"", ""internal_node_id"": ""0.0-0.4-0.4"", ""time_elapsed"": 629927, ""trial_index"": 8}"
A16SJ5D3DKUEXJ:3VBEN272MKZ76VO8YAQE4FVJFVSGSE,9,1492825645800,"{""rt"": 19607, ""trial_type"": ""survey-multi-choice"", ""responses"": ""[\""3\"",\""True\"",\""$0.10\"",\""As many or as few as I wish\"",\""My earnings for each round are equal to the <i>sum</i> of the values of all locations I visit (minus the cost of making observations), and I will be paid the earnings from one of the 8 rounds.\"",\""True\""]"", ""internal_node_id"": ""0.0-0.4-1.4"", ""time_elapsed"": 650549, ""questions"": ""[\""How many flights are there per round?\"",\""True or false: The hidden values will change each time I start a new round.\"",\""How much does it cost to observe each hidden value?\"",\""How many hidden values am I allowed to observe in each round?\"",\""Which statement is TRUE?\"",\""True of false: The duration of the delay tells me how much more money I could have earned by planning and deciding better.\""]"", ""correct"": [true, true, true, true, true, true], ""trial_index"": 9}"
A16SJ5D3DKUEXJ:3VBEN272MKZ76VO8YAQE4FVJFVSGSE,10,1492825694609,"{""rt"": [16854, 32, 2], ""trial_type"": ""graph"", ""infoCost"": 0.1, ""minTime"": 45, ""delays"": [-1, 0, 0], ""actionTimes"": [16854, 17611, 18436], ""time_elapsed"": 699358, ""actions"": [""down"", ""down"", ""right""], ""trialIndex"": 1, ""score"": 41, ""trial_index"": 10, ""internal_node_id"": ""0.0-1.0-0.0"", ""clickTimes"": [7100, 8591, 9067, 9700, 11020, 11529, 12023, 12615, 13034, 13747], ""path"": [1, 5, 9, 17], ""trialID"": 4, ""clicks"": [""4"", ""8"", ""14"", ""15"", ""2"", ""3"", ""5"", ""9"", ""16"", ""17""], ""condition"": 2}"
A16SJ5D3DKUEXJ:3VBEN272MKZ76VO8YAQE4FVJFVSGSE,11,1492825745722,"{""rt"": [12614, 189, 22], ""trial_type"": ""graph"", ""infoCost"": 0.1, ""minTime"": 45, ""delays"": [0, 0, 0], ""actionTimes"": [12615, 13441, 14203], ""time_elapsed"": 750471, ""actions"": [""right"", ""right"", ""up""], ""trialIndex"": 2, ""score"": 32.7, ""trial_index"": 11, ""internal_node_id"": ""0.0-1.0-1.0"", ""clickTimes"": [2471, 3464, 4019, 4604, 5401, 5800, 6276, 7042, 7495, 8066, 8816, 9206, 9621], ""path"": [1, 2, 6, 10], ""trialID"": 2, ""clicks"": [""4"", ""3"", ""2"", ""5"", ""9"", ""16"", ""17"", ""8"", ""14"", ""15"", ""6"", ""11"", ""10""], ""condition"": 2}"
A16SJ5D3DKUEXJ:3VBEN272MKZ76VO8YAQE4FVJFVSGSE,12,1492825794322,"{""rt"": [15169, 223, 1], ""trial_type"": ""graph"", ""infoCost"": 0.1, ""minTime"": 45, ""delays"": [0, 0, 0], ""actionTimes"": [15170, 15888, 16579], ""time_elapsed"": 799071, ""actions"": [""right"", ""right"", ""up""], ""trialIndex"": 3, ""score"": 20.4, ""trial_index"": 12, ""internal_node_id"": ""0.0-1.0-2.0"", ""clickTimes"": [1907, 2337, 2821, 3235, 4033, 4447, 4899, 7197, 7657, 8173, 8962, 9383, 10118, 10829, 11125, 11399], ""path"": [1, 2, 6, 10], ""trialID"": 7, ""clicks"": [""4"", ""3"", ""2"", ""5"", ""6"", ""10"", ""11"", ""7"", ""12"", ""13"", ""8"", ""14"", ""15"", ""16"", ""9"", ""17""], ""condition"": 2}"
A16SJ5D3DKUEXJ:3VBEN272MKZ76VO8YAQE4FVJFVSGSE,13,1492825843588,"{""rt"": [8677, 2, 1], ""trial_type"": ""graph"", ""infoCost"": 0.1, ""minTime"": 45, ""delays"": [-2, 0, 0], ""actionTimes"": [8678, 9425, 10225], ""time_elapsed"": 848336, ""actions"": [""down"", ""down"", ""left""], ""trialIndex"": 4, ""score"": 45, ""trial_index"": 13, ""internal_node_id"": ""0.0-1.0-3.0"", ""clickTimes"": [1235, 1657, 2117, 2571, 3437, 4728, 5375, 6163, 6602, 7375], ""path"": [1, 5, 9, 16], ""trialID"": 1, ""clicks"": [""4"", ""3"", ""2"", ""5"", ""7"", ""12"", ""13"", ""9"", ""16"", ""17""], ""condition"": 2}"
A16SJ5D3DKUEXJ:3VBEN272MKZ76VO8YAQE4FVJFVSGSE,14,1492825893093,"{""rt"": [10238, 2, 2], ""trial_type"": ""graph"", ""infoCost"": 0.1, ""minTime"": 45, ""delays"": [-1, 0, 0], ""actionTimes"": [10239, 10991, 11781], ""time_elapsed"": 897842, ""actions"": [""up"", ""up"", ""left""], ""trialIndex"": 5, ""score"": 36, ""trial_index"": 14, ""internal_node_id"": ""0.0-1.0-4.0"", ""clickTimes"": [1012, 1457, 1895, 2308, 3104, 3472, 4223, 5074, 5520, 6090], ""path"": [1, 3, 7, 12], ""trialID"": 6, ""clicks"": [""4"", ""3"", ""2"", ""5"", ""8"", ""14"", ""15"", ""7"", ""12"", ""13""], ""condition"": 2}"
A16SJ5D3DKUEXJ:3VBEN272MKZ76VO8YAQE4FVJFVSGSE,15,1492825941629,"{""rt"": [12493, 141, 2], ""trial_type"": ""graph"", ""infoCost"": 0.1, ""minTime"": 45, ""delays"": [-1, 0, 0], ""actionTimes"": [12494, 13252, 13990], ""time_elapsed"": 946378, ""actions"": [""left"", ""left"", ""down""], ""trialIndex"": 6, ""score"": 38.7, ""trial_index"": 15, ""internal_node_id"": ""0.0-1.0-5.0"", ""clickTimes"": [1159, 1637, 2167, 2573, 3589, 3987, 4502, 5597, 6005, 6535, 8199, 8701, 9675], ""path"": [1, 4, 8, 15], ""trialID"": 0, ""clicks"": [""3"", ""4"", ""5"", ""2"", ""9"", ""16"", ""17"", ""7"", ""12"", ""13"", ""8"", ""14"", ""15""], ""condition"": 2}"
A16SJ5D3DKUEXJ:3VBEN272MKZ76VO8YAQE4FVJFVSGSE,16,1492825989737,"{""rt"": [14980, 159, 3], ""trial_type"": ""graph"", ""infoCost"": 0.1, ""minTime"": 45, ""delays"": [0, 0, 0], ""actionTimes"": [14980, 15633, 16344], ""time_elapsed"": 994486, ""actions"": [""left"", ""left"", ""up""], ""trialIndex"": 7, ""score"": 32.4, ""trial_index"": 16, ""internal_node_id"": ""0.0-1.0-6.0"", ""clickTimes"": [1395, 1950, 2443, 2841, 3777, 4169, 4637, 5435, 5857, 6373, 7115, 7489, 8028, 10725, 11209, 12887], ""path"": [1, 4, 8, 14], ""trialID"": 5, ""clicks"": [""3"", ""4"", ""5"", ""2"", ""7"", ""12"", ""13"", ""8"", ""15"", ""14"", ""9"", ""16"", ""17"", ""10"", ""6"", ""11""], ""condition"": 2}"
A16SJ5D3DKUEXJ:3VBEN272MKZ76VO8YAQE4FVJFVSGSE,17,1492826037664,"{""rt"": [10305, 81, 2], ""trial_type"": ""graph"", ""infoCost"": 0.1, ""minTime"": 45, ""delays"": [-1, 0, 0], ""actionTimes"": [10306, 11160, 11963], ""time_elapsed"": 1042413, ""actions"": [""right"", ""right"", ""up""], ""trialIndex"": 8, ""score"": 32.8, ""trial_index"": 17, ""internal_node_id"": ""0.0-1.0-7.0"", ""clickTimes"": [2428, 2896, 3450, 3850, 4631, 5092, 5694, 6420, 6826, 7420, 8179, 8632], ""path"": [1, 2, 6, 10], ""trialID"": 3, ""clicks"": [""3"", ""4"", ""5"", ""2"", ""9"", ""16"", ""17"", ""6"", ""10"", ""11"", ""7"", ""12""], ""condition"": 2}"
A16SJ5D3DKUEXJ:3VBEN272MKZ76VO8YAQE4FVJFVSGSE,18,1492826045036,"{""rt"": 6357, ""trial_type"": ""button-response"", ""button_pressed"": 0, ""stimulus"": ""<h1 id=\""thiscompletesthehit\"">This completes the HIT</h1>\n\n<p>One or your trials has been randomly selected and we will pay you 5% of your profit on that trial as a bonus. You will be awarded a bonus of $1.64</p>"", ""internal_node_id"": ""0.0-2.0"", ""time_elapsed"": 1049785, ""trial_index"": 18}"
A1743ZO14I4NFO:33SA9F9TRXU2TY9QCKAR11DS8S2WEL,0,1492820682821,"{""rt"": 367068, ""trial_type"": ""instructions"", ""view_history"": ""[{\""page_index\"":0,\""viewing_time\"":63741},{\""page_index\"":1,\""viewing_time\"":29362},{\""page_index\"":2,\""viewing_time\"":49346},{\""page_index\"":3,\""viewing_time\"":224618}]"", ""internal_node_id"": ""0.0-0.0-0.0"", ""time_elapsed"": 367070, ""trial_index"": 0}"
A1743ZO14I4NFO:33SA9F9TRXU2TY9QCKAR11DS8S2WEL,1,1492820753587,"{""rt"": 65626, ""trial_type"": ""survey-multi-choice"", ""responses"": ""[\""1\"",\""True\"",\""$0.10\"",\""As many or as few as I wish\"",\""My earnings for each round are equal to the value of one of the locations I visit (minus the cost of making observations), but these earnings aren't real money.\"",\""All of the above.\""]"", ""internal_node_id"": ""0.0-0.0-1.0"", ""time_elapsed"": 437836, ""questions"": ""[\""How many flights are there per round?\"",\""True or false: The hidden values will change each time I start a new round.\"",\""How much does it cost to observe each hidden value?\"",\""How many hidden values am I allowed to observe in each round?\"",\""Which statement is TRUE?\"",\""What does the feedback teach me?\""]"", ""correct"": [false, true, true, true, false, true], ""trial_index"": 1}"
A1743ZO14I4NFO:33SA9F9TRXU2TY9QCKAR11DS8S2WEL,2,1492820856510,"{""rt"": 101917, ""trial_type"": ""instructions"", ""view_history"": ""[{\""page_index\"":0,\""viewing_time\"":20389},{\""page_index\"":1,\""viewing_time\"":32868},{\""page_index\"":2,\""viewing_time\"":29020},{\""page_index\"":3,\""viewing_time\"":19638}]"", ""internal_node_id"": ""0.0-0.1-0.1"", ""time_elapsed"": 540760, ""trial_index"": 2}"
