A18TCR555RWUZV:3TXD01ZLD4H79SNSSEJDARG374V4UF,0,1487290627900,"{""rt"": 37442, ""trial_type"": ""instructions"", ""view_history"": ""[{\""page_index\"":0,\""viewing_time\"":15115},{\""page_index\"":1,\""viewing_time\"":13109},{\""page_index\"":2,\""viewing_time\"":9218}]"", ""internal_node_id"": ""0.0-0.0-0.0"", ""time_elapsed"": 37444, ""trial_index"": 0}"
A18TCR555RWUZV:3TXD01ZLD4H79SNSSEJDARG374V4UF,1,1487290662958,"{""rt"": 32021, ""trial_type"": ""survey-multi-choice"", ""responses"": ""[\""1\"",\""True\"",\""$0.05\"",\""As many or as few as I wish\"",\""My earning for each round is equal to the <i>sum</i> of the values of all locations I visit (minus the cost of making observations), and I will be paid the earnings from one of the 20 rounds.\""]"", ""internal_node_id"": ""0.0-0.0-1.0"", ""time_elapsed"": 72502, ""questions"": ""[\""How many flights are taken per round?\"",\""True or false: The hidden values will change each time I start a new round.\"",\""How much does it cost to observe each hidden value?\"",\""How many hidden values am I allowed to observe in each round?\"",\""Which statement is TRUE?\""]"", ""correct"": [false, true, true, true, true], ""trial_index"": 1}"
A18TCR555RWUZV:3TXD01ZLD4H79SNSSEJDARG374V4UF,2,1487290771613,"{""rt"": 107647, ""trial_type"": ""instructions"", ""view_history"": ""[{\""page_index\"":0,\""viewing_time\"":8197},{\""page_index\"":1,\""viewing_time\"":14816},{\""page_index\"":2,\""viewing_time\"":6570},{\""page_index\"":1,\""viewing_time\"":1828},{\""page_index\"":0,\""viewing_time\"":59038},{\""page_index\"":1,\""viewing_time\"":12846},{\""page_index\"":2,\""viewing_time\"":4352}]"", ""internal_node_id"": ""0.0-0.1-0.1"", ""time_elapsed"": 181156, ""trial_index"": 2}"
A18TCR555RWUZV:3TXD01ZLD4H79SNSSEJDARG374V4UF,3,1487290802271,"{""rt"": 25887, ""trial_type"": ""survey-multi-choice"", ""responses"": ""[\""4\"",\""True\"",\""$0.05\"",\""As many or as few as I wish\"",\""My earning for each round is equal to the <i>sum</i> of the values of all locations I visit (minus the cost of making observations), and I will be paid the earnings from one of the 20 rounds.\""]"", ""internal_node_id"": ""0.0-0.1-1.1"", ""time_elapsed"": 211814, ""questions"": ""[\""How many flights are taken per round?\"",\""True or false: The hidden values will change each time I start a new round.\"",\""How much does it cost to observe each hidden value?\"",\""How many hidden values am I allowed to observe in each round?\"",\""Which statement is TRUE?\""]"", ""correct"": [false, true, true, true, true], ""trial_index"": 3}"
A18TCR555RWUZV:3TXD01ZLD4H79SNSSEJDARG374V4UF,4,1487290810036,"{""rt"": 6754, ""trial_type"": ""instructions"", ""view_history"": ""[{\""page_index\"":0,\""viewing_time\"":4573},{\""page_index\"":1,\""viewing_time\"":1383},{\""page_index\"":2,\""viewing_time\"":798}]"", ""internal_node_id"": ""0.0-0.2-0.2"", ""time_elapsed"": 219580, ""trial_index"": 4}"
A18TCR555RWUZV:3TXD01ZLD4H79SNSSEJDARG374V4UF,5,1487290828535,"{""rt"": 17477, ""trial_type"": ""survey-multi-choice"", ""responses"": ""[\""3\"",\""True\"",\""$0.05\"",\""As many or as few as I wish\"",\""My earning for each round is equal to the <i>sum</i> of the values of all locations I visit (minus the cost of making observations), and I will be paid the earnings from one of the 20 rounds.\""]"", ""internal_node_id"": ""0.0-0.2-1.2"", ""time_elapsed"": 238079, ""questions"": ""[\""How many flights are taken per round?\"",\""True or false: The hidden values will change each time I start a new round.\"",\""How much does it cost to observe each hidden value?\"",\""How many hidden values am I allowed to observe in each round?\"",\""Which statement is TRUE?\""]"", ""correct"": [true, true, true, true, true], ""trial_index"": 5}"
A18TCR555RWUZV:3TXD01ZLD4H79SNSSEJDARG374V4UF,6,1487290878643,"{""rt"": [31275, 704, 130], ""trial_type"": ""graph"", ""infoCost"": 0.05, ""minTime"": 45, ""actionTimes"": [31275, 32492, 33134], ""time_elapsed"": 288187, ""actions"": [""down"", ""down"", ""right""], ""trialIndex"": 1, ""score"": 1.35, ""internal_node_id"": ""0.0-1.0-0.0"", ""clickTimes"": [2077, 2963, 3977, 5051, 6144, 6825, 8066, 8755, 9741, 10835, 11987, 12932, 13897, 14952, 15949, 17930], ""path"": [1, 5, 9, 17], ""trialID"": 12, ""clicks"": [""4"", ""5"", ""2"", ""3"", ""6"", ""11"", ""9"", ""16"", ""15"", ""14"", ""12"", ""13"", ""10"", ""7"", ""8"", ""17""], ""trial_index"": 6}"
A18TCR555RWUZV:3TXD01ZLD4H79SNSSEJDARG374V4UF,7,1487290925366,"{""rt"": [14963, 136, 181], ""trial_type"": ""graph"", ""infoCost"": 0.05, ""minTime"": 45, ""actionTimes"": [14963, 15603, 16297], ""time_elapsed"": 334910, ""actions"": [""right"", ""right"", ""down""], ""trialIndex"": 2, ""score"": 4.63, ""internal_node_id"": ""0.0-1.0-1.0"", ""clickTimes"": [1210, 1979, 2855, 3612, 4412, 5066, 6026, 7031, 7693, 8254, 9131, 9948, 11013, 11841], ""path"": [1, 2, 6, 11], ""trialID"": 16, ""clicks"": [""4"", ""3"", ""5"", ""2"", ""6"", ""11"", ""10"", ""13"", ""7"", ""12"", ""14"", ""15"", ""16"", ""17""], ""trial_index"": 7}"
A18TCR555RWUZV:3TXD01ZLD4H79SNSSEJDARG374V4UF,8,1487290974604,"{""rt"": [20170, 27, 400], ""trial_type"": ""graph"", ""infoCost"": 0.05, ""minTime"": 45, ""actionTimes"": [20170, 20713, 21619], ""time_elapsed"": 384148, ""actions"": [""up"", ""up"", ""left""], ""trialIndex"": 3, ""score"": 4.07, ""internal_node_id"": ""0.0-1.0-2.0"", ""clickTimes"": [765, 1908, 2559, 3327, 4146, 4845, 6018, 6796, 7554, 8314, 9438, 10008, 10601, 12049, 13211, 14039], ""path"": [1, 3, 7, 12], ""trialID"": 0, ""clicks"": [""4"", ""8"", ""15"", ""14"", ""3"", ""2"", ""5"", ""6"", ""11"", ""10"", ""13"", ""7"", ""12"", ""16"", ""9"", ""17""], ""trial_index"": 8}"
A18TCR555RWUZV:3TXD01ZLD4H79SNSSEJDARG374V4UF,9,1487291021460,"{""rt"": [13565, 764, 145], ""trial_type"": ""graph"", ""infoCost"": 0.05, ""minTime"": 45, ""actionTimes"": [13565, 14836, 15485], ""time_elapsed"": 431004, ""actions"": [""up"", ""up"", ""left""], ""trialIndex"": 4, ""score"": 3.21, ""internal_node_id"": ""0.0-1.0-3.0"", ""clickTimes"": [707, 1425, 2135, 3092, 3958, 4541, 5190, 5909, 6480, 7122, 8078, 8858, 9508, 10446, 11392, 12130], ""path"": [1, 3, 7, 12], ""trialID"": 3, ""clicks"": [""4"", ""5"", ""2"", ""3"", ""12"", ""7"", ""13"", ""10"", ""6"", ""11"", ""17"", ""9"", ""16"", ""15"", ""8"", ""14""], ""trial_index"": 9}"
A18TCR555RWUZV:3TXD01ZLD4H79SNSSEJDARG374V4UF,10,1487291068111,"{""rt"": [22865, 56, 402], ""trial_type"": ""graph"", ""infoCost"": 0.05, ""minTime"": 45, ""actionTimes"": [22865, 23436, 24349], ""time_elapsed"": 477655, ""actions"": [""right"", ""right"", ""down""], ""trialIndex"": 5, ""score"": 4.48, ""internal_node_id"": ""0.0-1.0-4.0"", ""clickTimes"": [772, 1490, 2280, 3365, 4429, 5041, 5663, 6441, 7063, 7703, 8669, 9231, 9872, 10947, 11588, 12219], ""path"": [1, 2, 6, 11], ""trialID"": 6, ""clicks"": [""4"", ""5"", ""2"", ""3"", ""12"", ""7"", ""13"", ""10"", ""6"", ""11"", ""17"", ""9"", ""16"", ""15"", ""8"", ""14""], ""trial_index"": 10}"
A18TCR555RWUZV:3TXD01ZLD4H79SNSSEJDARG374V4UF,11,1487291115029,"{""rt"": [12377, 17, 530], ""trial_type"": ""graph"", ""infoCost"": 0.05, ""minTime"": 45, ""actionTimes"": [12377, 12907, 13953], ""time_elapsed"": 524573, ""actions"": [""up"", ""up"", ""right""], ""trialIndex"": 6, ""score"": 2.74, ""internal_node_id"": ""0.0-1.0-5.0"", ""clickTimes"": [1531, 1885, 1995, 2131, 2464, 3044, 3397, 3646, 3874, 4427, 4626, 4892, 4983, 5148, 5765, 6032, 6250, 6349, 6525, 6589], ""path"": [1, 3, 7, 13], ""trialID"": 10, ""clicks"": [""15"", ""8"", ""8"", ""14"", ""4"", ""12"", ""3"", ""7"", ""13"", ""10"", ""6"", ""11"", ""11"", ""2"", ""17"", ""9"", ""5"", ""5"", ""16"", ""16""], ""trial_index"": 11}"
A18TCR555RWUZV:3TXD01ZLD4H79SNSSEJDARG374V4UF,12,1487291163274,"{""rt"": [9102, 418, 112], ""trial_type"": ""graph"", ""infoCost"": 0.05, ""minTime"": 45, ""actionTimes"": [9102, 10023, 10665], ""time_elapsed"": 572818, ""actions"": [""down"", ""down"", ""right""], ""trialIndex"": 7, ""score"": 4.51, ""internal_node_id"": ""0.0-1.0-6.0"", ""clickTimes"": [635, 821, 1521, 1622, 2312, 2384, 2977, 3197, 3414, 3505, 3738, 4346, 4651, 4899, 5125, 5207, 5973, 6221, 6471, 6721], ""path"": [1, 5, 9, 17], ""trialID"": 19, ""clicks"": [""17"", ""9"", ""5"", ""5"", ""16"", ""16"", ""15"", ""8"", ""14"", ""14"", ""4"", ""3"", ""12"", ""7"", ""13"", ""13"", ""10"", ""6"", ""2"", ""11""], ""trial_index"": 12}"
A18TCR555RWUZV:3TXD01ZLD4H79SNSSEJDARG374V4UF,13,1487291212439,"{""rt"": [14068, 488, 312], ""trial_type"": ""graph"", ""infoCost"": 0.05, ""minTime"": 45, ""actionTimes"": [14068, 15067, 15890], ""time_elapsed"": 621983, ""actions"": [""up"", ""up"", ""left""], ""trialIndex"": 8, ""score"": 3.9, ""internal_node_id"": ""0.0-1.0-7.0"", ""clickTimes"": [1493, 1857, 1940, 2057, 2321, 2393, 2988, 3208, 3457, 3564, 3805, 4253, 4327, 4586, 4899, 5129, 5705, 5709, 5961, 6228, 6477], ""path"": [1, 3, 7, 12], ""trialID"": 7, ""clicks"": [""17"", ""5"", ""5"", ""9"", ""16"", ""16"", ""15"", ""8"", ""4"", ""4"", ""14"", ""12"", ""12"", ""3"", ""7"", ""13"", ""13"", ""10"", ""6"", ""2"", ""11""], ""trial_index"": 13}"
A18TCR555RWUZV:3TXD01ZLD4H79SNSSEJDARG374V4UF,14,1487291258997,"{""rt"": [16210, 200, 366], ""trial_type"": ""graph"", ""infoCost"": 0.05, ""minTime"": 45, ""actionTimes"": [16210, 16924, 17805], ""time_elapsed"": 668541, ""actions"": [""up"", ""up"", ""right""], ""trialIndex"": 9, ""score"": 3.12, ""internal_node_id"": ""0.0-1.0-8.0"", ""clickTimes"": [2701, 2848, 3094, 3210, 3441, 3936, 4355, 4982, 5298, 5899, 6175, 6452, 7557, 8233, 8606, 8807, 9044, 9128], ""path"": [1, 3, 7, 13], ""trialID"": 9, ""clicks"": [""10"", ""6"", ""2"", ""2"", ""11"", ""17"", ""9"", ""5"", ""16"", ""15"", ""8"", ""4"", ""14"", ""3"", ""12"", ""7"", ""13"", ""13""], ""trial_index"": 14}"
A18TCR555RWUZV:3TXD01ZLD4H79SNSSEJDARG374V4UF,15,1487291308527,"{""rt"": [12548, 9, 1421], ""trial_type"": ""graph"", ""infoCost"": 0.05, ""minTime"": 45, ""actionTimes"": [12548, 13075, 15021], ""time_elapsed"": 718071, ""actions"": [""left"", ""left"", ""down""], ""trialIndex"": 10, ""score"": 2.86, ""internal_node_id"": ""0.0-1.0-9.0"", ""clickTimes"": [862, 1207, 1298, 1567, 2311, 2904, 3176, 3470, 3851, 4698, 5088, 5352, 5600, 5700, 6285, 6940, 7264, 7524], ""path"": [1, 4, 8, 15], ""trialID"": 11, ""clicks"": [""17"", ""9"", ""9"", ""5"", ""16"", ""15"", ""8"", ""4"", ""14"", ""3"", ""12"", ""7"", ""13"", ""13"", ""10"", ""2"", ""6"", ""11""], ""trial_index"": 15}"
A18TCR555RWUZV:3TXD01ZLD4H79SNSSEJDARG374V4UF,16,1487291355360,"{""rt"": [10361, 902, 387], ""trial_type"": ""graph"", ""infoCost"": 0.05, ""minTime"": 45, ""actionTimes"": [10361, 11780, 12682], ""time_elapsed"": 764904, ""actions"": [""right"", ""right"", ""up""], ""trialIndex"": 11, ""score"": 1.62, ""internal_node_id"": ""0.0-1.0-10.0"", ""clickTimes"": [623, 851, 1124, 1428, 1972, 2225, 2434, 2525, 2711, 2775, 3378, 3615, 3845, 3944, 4120, 4882, 5197, 5445, 5653, 5735], ""path"": [1, 2, 6, 10], ""trialID"": 8, ""clicks"": [""10"", ""6"", ""2"", ""11"", ""17"", ""9"", ""5"", ""5"", ""16"", ""16"", ""15"", ""8"", ""4"", ""4"", ""14"", ""3"", ""12"", ""7"", ""13"", ""13""], ""trial_index"": 16}"
A18TCR555RWUZV:3TXD01ZLD4H79SNSSEJDARG374V4UF,17,1487291401961,"{""rt"": [8394, 27, 588], ""trial_type"": ""graph"", ""infoCost"": 0.05, ""minTime"": 45, ""actionTimes"": [8394, 8936, 10031], ""time_elapsed"": 811505, ""actions"": [""left"", ""left"", ""down""], ""trialIndex"": 12, ""score"": 6.01, ""internal_node_id"": ""0.0-1.0-11.0"", ""clickTimes"": [568, 754, 992, 1221, 1321, 1905, 2163, 2390, 2490, 2675, 3409, 3656, 3876, 3967, 4218, 5589, 5864, 6073, 6282, 6363], ""path"": [1, 4, 8, 15], ""trialID"": 2, ""clicks"": [""10"", ""2"", ""6"", ""11"", ""11"", ""17"", ""9"", ""5"", ""5"", ""16"", ""15"", ""8"", ""4"", ""4"", ""14"", ""3"", ""12"", ""7"", ""13"", ""13""], ""trial_index"": 17}"
A18TCR555RWUZV:3TXD01ZLD4H79SNSSEJDARG374V4UF,18,1487291449678,"{""rt"": [12600, 34, 484], ""trial_type"": ""graph"", ""infoCost"": 0.05, ""minTime"": 45, ""actionTimes"": [12600, 13137, 14136], ""time_elapsed"": 859222, ""actions"": [""up"", ""up"", ""left""], ""trialIndex"": 13, ""score"": 3.97, ""internal_node_id"": ""0.0-1.0-12.0"", ""clickTimes"": [530, 740, 949, 1178, 1269, 1654, 1770, 1917, 2108, 2217, 2402, 3069, 3298, 3519, 3660, 3828, 4825, 5368, 6112, 6595, 6642], ""path"": [1, 3, 7, 12], ""trialID"": 5, ""clicks"": [""10"", ""2"", ""6"", ""11"", ""11"", ""17"", ""17"", ""9"", ""5"", ""5"", ""16"", ""15"", ""8"", ""4"", ""4"", ""14"", ""3"", ""7"", ""13"", ""12"", ""12""], ""trial_index"": 18}"
A18TCR555RWUZV:3TXD01ZLD4H79SNSSEJDARG374V4UF,19,1487291496475,"{""rt"": [11788, 496, 179], ""trial_type"": ""graph"", ""infoCost"": 0.05, ""minTime"": 45, ""actionTimes"": [11789, 12800, 13483], ""time_elapsed"": 906019, ""actions"": [""right"", ""right"", ""up""], ""trialIndex"": 14, ""score"": 3.38, ""internal_node_id"": ""0.0-1.0-13.0"", ""clickTimes"": [845, 1163, 1401, 1620, 2457, 2753, 2953, 3209, 3302, 4178, 4449, 4744, 5087, 5706, 6115, 6353, 6570, 6682], ""path"": [1, 2, 6, 10], ""trialID"": 18, ""clicks"": [""10"", ""2"", ""6"", ""11"", ""17"", ""9"", ""5"", ""16"", ""16"", ""15"", ""8"", ""4"", ""14"", ""3"", ""12"", ""7"", ""13"", ""13""], ""trial_index"": 19}"
A18TCR555RWUZV:3TXD01ZLD4H79SNSSEJDARG374V4UF,20,1487291543139,"{""rt"": [10723, 1684, 456], ""trial_type"": ""graph"", ""infoCost"": 0.05, ""minTime"": 45, ""actionTimes"": [10723, 12911, 13883], ""time_elapsed"": 952683, ""actions"": [""right"", ""right"", ""down""], ""trialIndex"": 15, ""score"": 3.17, ""internal_node_id"": ""0.0-1.0-14.0"", ""clickTimes"": [593, 808, 1027, 1244, 1343, 2147, 2506, 2724, 3050, 3831, 4078, 4314, 4399, 4735, 4833, 5475, 5996, 6240, 6449], ""path"": [1, 2, 6, 11], ""trialID"": 17, ""clicks"": [""10"", ""2"", ""6"", ""11"", ""11"", ""17"", ""9"", ""5"", ""16"", ""15"", ""8"", ""4"", ""4"", ""14"", ""14"", ""12"", ""3"", ""7"", ""13""], ""trial_index"": 20}"
A18TCR555RWUZV:3TXD01ZLD4H79SNSSEJDARG374V4UF,21,1487291590653,"{""rt"": [11038, 755, 127], ""trial_type"": ""graph"", ""infoCost"": 0.05, ""minTime"": 45, ""actionTimes"": [11038, 12301, 12939], ""time_elapsed"": 1000197, ""actions"": [""left"", ""left"", ""down""], ""trialIndex"": 16, ""score"": 3.25, ""internal_node_id"": ""0.0-1.0-15.0"", ""clickTimes"": [592, 741, 988, 1098, 1329, 1833, 2181, 2391, 2659, 2730, 3400, 3629, 3895, 4312, 4413, 4997, 5330, 5595, 5786], ""path"": [1, 4, 8, 15], ""trialID"": 14, ""clicks"": [""10"", ""6"", ""2"", ""2"", ""11"", ""17"", ""9"", ""5"", ""16"", ""16"", ""15"", ""8"", ""4"", ""14"", ""14"", ""12"", ""3"", ""7"", ""13""], ""trial_index"": 21}"
A18TCR555RWUZV:3TXD01ZLD4H79SNSSEJDARG374V4UF,22,1487291639381,"{""rt"": [10597, 374, 46], ""trial_type"": ""graph"", ""infoCost"": 0.05, ""minTime"": 45, ""actionTimes"": [10597, 11488, 12044], ""time_elapsed"": 1048925, ""actions"": [""down"", ""down"", ""right""], ""trialIndex"": 17, ""score"": 3.76, ""internal_node_id"": ""0.0-1.0-16.0"", ""clickTimes"": [592, 854, 1121, 1901, 2394, 2486, 2669, 3137, 3184, 3483, 4472, 4681, 4907, 5268, 6732, 7018, 7264, 7463, 7553], ""path"": [1, 5, 9, 17], ""trialID"": 1, ""clicks"": [""10"", ""2"", ""6"", ""11"", ""17"", ""17"", ""9"", ""5"", ""5"", ""16"", ""15"", ""8"", ""4"", ""14"", ""12"", ""3"", ""7"", ""13"", ""13""], ""trial_index"": 22}"
A18TCR555RWUZV:3TXD01ZLD4H79SNSSEJDARG374V4UF,23,1487291689107,"{""rt"": [16386, 246, 603], ""trial_type"": ""graph"", ""infoCost"": 0.05, ""minTime"": 45, ""actionTimes"": [16386, 17146, 18253], ""time_elapsed"": 1098651, ""actions"": [""left"", ""left"", ""down""], ""trialIndex"": 18, ""score"": 3.07, ""internal_node_id"": ""0.0-1.0-17.0"", ""clickTimes"": [3225, 3452, 3871, 3962, 4158, 4632, 4724, 4861, 5050, 5141, 5297, 5389, 5972, 6252, 6451, 6737, 7840, 8135, 8430, 8620], ""path"": [1, 4, 8, 15], ""trialID"": 4, ""clicks"": [""10"", ""6"", ""2"", ""2"", ""11"", ""17"", ""17"", ""9"", ""5"", ""5"", ""16"", ""16"", ""15"", ""8"", ""4"", ""14"", ""12"", ""3"", ""7"", ""13""], ""trial_index"": 23}"
A18TCR555RWUZV:3TXD01ZLD4H79SNSSEJDARG374V4UF,24,1487291736219,"{""rt"": [10180, 407, 413], ""trial_type"": ""graph"", ""infoCost"": 0.05, ""minTime"": 45, ""actionTimes"": [10181, 11093, 12015], ""time_elapsed"": 1145763, ""actions"": [""left"", ""left"", ""down""], ""trialIndex"": 19, ""score"": 3.32, ""internal_node_id"": ""0.0-1.0-18.0"", ""clickTimes"": [953, 1343, 1425, 1619, 2011, 2129, 2759, 3047, 3266, 3572, 4336, 4614, 4785, 4884, 5088, 5180, 6119, 6369, 6570, 6829, 6851], ""path"": [1, 4, 8, 15], ""trialID"": 15, ""clicks"": [""11"", ""2"", ""2"", ""6"", ""10"", ""10"", ""13"", ""7"", ""3"", ""12"", ""4"", ""8"", ""14"", ""14"", ""15"", ""15"", ""16"", ""9"", ""5"", ""17"", ""17""], ""trial_index"": 24}"
A18TCR555RWUZV:3TXD01ZLD4H79SNSSEJDARG374V4UF,25,1487291787014,"{""rt"": [14457, 59, 940], ""trial_type"": ""graph"", ""infoCost"": 0.05, ""minTime"": 45, ""actionTimes"": [14457, 15021, 16468], ""time_elapsed"": 1196557, ""actions"": [""up"", ""up"", ""right""], ""trialIndex"": 20, ""score"": 3.46, ""internal_node_id"": ""0.0-1.0-19.0"", ""clickTimes"": [1404, 1630, 1899, 3366, 3926, 4192, 4532, 4828, 5665, 5961, 6190, 6551, 7180, 7619, 7683, 7887, 8108], ""path"": [1, 3, 7, 13], ""trialID"": 13, ""clicks"": [""10"", ""6"", ""2"", ""11"", ""17"", ""9"", ""5"", ""16"", ""15"", ""8"", ""4"", ""14"", ""3"", ""12"", ""12"", ""7"", ""13""], ""trial_index"": 25}"
A18TCR555RWUZV:3TXD01ZLD4H79SNSSEJDARG374V4UF,26,1487291796225,"{""rt"": 8200, ""trial_type"": ""button-response"", ""button_pressed"": 0, ""stimulus"": ""<h1 id=\""thiscompletesthehit\"">This completes the HIT</h1>\n\n<p>One or your profits was randomly selected as your bonus. You will be awarded a bonus of $4.07</p>"", ""internal_node_id"": ""0.0-2.0"", ""time_elapsed"": 1205769, ""trial_index"": 26}"
A1945USNZHTROX:3OJSZ2ATDSWN70FWTB9C5R8XZQY75S,0,1487370740755,"{""rt"": 130113, ""trial_type"": ""instructions"", ""view_history"": ""[{\""page_index\"":0,\""viewing_time\"":39960},{\""page_index\"":1,\""viewing_time\"":29073},{\""page_index\"":2,\""viewing_time\"":61076}]"", ""internal_node_id"": ""0.0-0.0-0.0"", ""time_elapsed"": 130115, ""trial_index"": 0}"
A1945USNZHTROX:3OJSZ2ATDSWN70FWTB9C5R8XZQY75S,1,1487370877403,"{""rt"": 132646, ""trial_type"": ""survey-multi-choice"", ""responses"": ""[\""1\"",\""True\"",\""$0.05\"",\""As many or as few as I wish\"",\""My earning for each round is equal to the <i>sum</i> of the values of all locations I visit (minus the cost of making observations), and I will be paid the earnings from one of the 20 rounds.\""]"", ""internal_node_id"": ""0.0-0.0-1.0"", ""time_elapsed"": 266764, ""questions"": ""[\""How many flights are taken per round?\"",\""True or false: The hidden values will change each time I start a new round.\"",\""How much does it cost to observe each hidden value?\"",\""How many hidden values am I allowed to observe in each round?\"",\""Which statement is TRUE?\""]"", ""correct"": [false, true, true, true, true], ""trial_index"": 1}"
A1945USNZHTROX:3OJSZ2ATDSWN70FWTB9C5R8XZQY75S,2,1487370881292,"{""rt"": 2880, ""trial_type"": ""instructions"", ""view_history"": ""[{\""page_index\"":0,\""viewing_time\"":1590},{\""page_index\"":1,\""viewing_time\"":830},{\""page_index\"":2,\""viewing_time\"":458}]"", ""internal_node_id"": ""0.0-0.1-0.1"", ""time_elapsed"": 270652, ""trial_index"": 2}"
A1945USNZHTROX:3OJSZ2ATDSWN70FWTB9C5R8XZQY75S,3,1487370903848,"{""rt"": 21455, ""trial_type"": ""survey-multi-choice"", ""responses"": ""[\""3\"",\""True\"",\""$0.05\"",\""As many or as few as I wish\"",\""My earning for each round is equal to the <i>sum</i> of the values of all locations I visit (minus the cost of making observations), and I will be paid the earnings from one of the 20 rounds.\""]"", ""internal_node_id"": ""0.0-0.1-1.1"", ""time_elapsed"": 293209, ""questions"": ""[\""How many flights are taken per round?\"",\""True or false: The hidden values will change each time I start a new round.\"",\""How much does it cost to observe each hidden value?\"",\""How many hidden values am I allowed to observe in each round?\"",\""Which statement is TRUE?\""]"", ""correct"": [true, true, true, true, true], ""trial_index"": 3}"
A1945USNZHTROX:3OJSZ2ATDSWN70FWTB9C5R8XZQY75S,4,1487370952698,"{""rt"": [36396, 1049, 688], ""trial_type"": ""graph"", ""infoCost"": 0.05, ""minTime"": 45, ""actionTimes"": [36398, 37963, 39169], ""time_elapsed"": 342058, ""actions"": [""down"", ""down"", ""right""], ""trialIndex"": 1, ""score"": 5.51, ""internal_node_id"": ""0.0-1.0-0.0"", ""clickTimes"": [], ""path"": [1, 5, 9, 17], ""trialID"": 19, ""clicks"": [], ""trial_index"": 4}"
A1945USNZHTROX:3OJSZ2ATDSWN70FWTB9C5R8XZQY75S,5,1487371020029,"{""rt"": [5084, 391, 3072], ""trial_type"": ""graph"", ""infoCost"": 0.05, ""minTime"": 45, ""actionTimes"": [5084, 5984, 9564], ""time_elapsed"": 409389, ""actions"": [""up"", ""up"", ""right""], ""trialIndex"": 2, ""score"": -0.87, ""internal_node_id"": ""0.0-1.0-1.0"", ""clickTimes"": [], ""path"": [1, 3, 7, 13], ""trialID"": 15, ""clicks"": [], ""trial_index"": 5}"
A1945USNZHTROX:3OJSZ2ATDSWN70FWTB9C5R8XZQY75S,6,1487371108035,"{""rt"": [633, 229, 158], ""trial_type"": ""graph"", ""infoCost"": 0.05, ""minTime"": 45, ""actionTimes"": [634, 1374, 2053], ""time_elapsed"": 497394, ""actions"": [""up"", ""up"", ""right""], ""trialIndex"": 3, ""score"": 0.47, ""internal_node_id"": ""0.0-1.0-2.0"", ""clickTimes"": [], ""path"": [1, 3, 7, 13], ""trialID"": 17, ""clicks"": [], ""trial_index"": 6}"
A1945USNZHTROX:3OJSZ2ATDSWN70FWTB9C5R8XZQY75S,7,1487371219520,"{""rt"": [7124, 220, 2155], ""trial_type"": ""graph"", ""infoCost"": 0.05, ""minTime"": 45, ""actionTimes"": [7124, 7854, 10522], ""time_elapsed"": 608880, ""actions"": [""right"", ""right"", ""up""], ""trialIndex"": 4, ""score"": 2.22, ""internal_node_id"": ""0.0-1.0-3.0"", ""clickTimes"": [842, 1581, 2504, 3199, 3922, 4549, 5077, 5795], ""path"": [1, 2, 6, 10], ""trialID"": 8, ""clicks"": [""10"", ""11"", ""17"", ""16"", ""15"", ""14"", ""12"", ""13""], ""trial_index"": 7}"
A1945USNZHTROX:3OJSZ2ATDSWN70FWTB9C5R8XZQY75S,8,1487371374209,"{""rt"": [5640, 153, 1987], ""trial_type"": ""graph"", ""infoCost"": 0.05, ""minTime"": 45, ""actionTimes"": [5641, 6309, 8809], ""time_elapsed"": 763569, ""actions"": [""up"", ""up"", ""left""], ""trialIndex"": 5, ""score"": 3.81, ""internal_node_id"": ""0.0-1.0-4.0"", ""clickTimes"": [828, 1762, 2526, 3066], ""path"": [1, 3, 7, 12], ""trialID"": 3, ""clicks"": [""12"", ""13"", ""10"", ""11""], ""trial_index"": 8}"
A1945USNZHTROX:3OJSZ2ATDSWN70FWTB9C5R8XZQY75S,9,1487371433050,"{""rt"": [8762, 319, 1315], ""trial_type"": ""graph"", ""infoCost"": 0.05, ""minTime"": 45, ""actionTimes"": [8762, 9590, 11420], ""time_elapsed"": 822411, ""actions"": [""up"", ""up"", ""right""], ""trialIndex"": 6, ""score"": 3.62, ""internal_node_id"": ""0.0-1.0-5.0"", ""clickTimes"": [3189, 3929, 4545, 5024, 5530, 6105, 6601, 7193], ""path"": [1, 3, 7, 13], ""trialID"": 9, ""clicks"": [""12"", ""13"", ""10"", ""11"", ""17"", ""16"", ""15"", ""14""], ""trial_index"": 9}"
A1945USNZHTROX:3OJSZ2ATDSWN70FWTB9C5R8XZQY75S,10,1487371496055,"{""rt"": [8883, 194, 720], ""trial_type"": ""graph"", ""infoCost"": 0.05, ""minTime"": 45, ""actionTimes"": [8883, 9651, 10891], ""time_elapsed"": 885415, ""actions"": [""up"", ""up"", ""right""], ""trialIndex"": 7, ""score"": 4.21, ""internal_node_id"": ""0.0-1.0-6.0"", ""clickTimes"": [5325, 6010], ""path"": [1, 3, 7, 13], ""trialID"": 13, ""clicks"": [""12"", ""13""], ""trial_index"": 10}"
A1945USNZHTROX:3OJSZ2ATDSWN70FWTB9C5R8XZQY75S,11,1487371585627,"{""rt"": [12662, 628, 2003], ""trial_type"": ""graph"", ""infoCost"": 0.05, ""minTime"": 45, ""actionTimes"": [12662, 13800, 16312], ""time_elapsed"": 974986, ""actions"": [""right"", ""right"", ""down""], ""trialIndex"": 8, ""score"": 4.93, ""internal_node_id"": ""0.0-1.0-7.0"", ""clickTimes"": [4652, 6134, 7139, 7747, 8241, 8709, 9295, 9921], ""path"": [1, 2, 6, 11], ""trialID"": 16, ""clicks"": [""12"", ""13"", ""10"", ""11"", ""17"", ""16"", ""15"", ""14""], ""trial_index"": 11}"
A1945USNZHTROX:3OJSZ2ATDSWN70FWTB9C5R8XZQY75S,12,1487371686633,"{""rt"": [8755, 173, 512], ""trial_type"": ""graph"", ""infoCost"": 0.05, ""minTime"": 45, ""actionTimes"": [8755, 9443, 10464], ""time_elapsed"": 1075993, ""actions"": [""up"", ""up"", ""right""], ""trialIndex"": 9, ""score"": 0.62, ""internal_node_id"": ""0.0-1.0-8.0"", ""clickTimes"": [2494, 3207, 3811, 4370, 5222, 5718, 6257, 6849], ""path"": [1, 3, 7, 13], ""trialID"": 18, ""clicks"": [""12"", ""13"", ""10"", ""11"", ""17"", ""16"", ""15"", ""14""], ""trial_index"": 12}"
A1945USNZHTROX:3OJSZ2ATDSWN70FWTB9C5R8XZQY75S,13,1487371756298,"{""rt"": [4710, 150, 520], ""trial_type"": ""graph"", ""infoCost"": 0.05, ""minTime"": 45, ""actionTimes"": [4710, 5369, 6410], ""time_elapsed"": 1145658, ""actions"": [""up"", ""up"", ""left""], ""trialIndex"": 10, ""score"": 4.97, ""internal_node_id"": ""0.0-1.0-9.0"", ""clickTimes"": [1368], ""path"": [1, 3, 7, 12], ""trialID"": 5, ""clicks"": [""12""], ""trial_index"": 13}"
A1945USNZHTROX:3OJSZ2ATDSWN70FWTB9C5R8XZQY75S,14,1487371812661,"{""rt"": [7239, 175, 864], ""trial_type"": ""graph"", ""infoCost"": 0.05, ""minTime"": 45, ""actionTimes"": [7239, 7927, 9299], ""time_elapsed"": 1202021, ""actions"": [""down"", ""down"", ""right""], ""trialIndex"": 11, ""score"": 1.75, ""internal_node_id"": ""0.0-1.0-10.0"", ""clickTimes"": [981, 1585, 2309, 2902, 3464, 4150, 4774, 5331], ""path"": [1, 5, 9, 17], ""trialID"": 12, ""clicks"": [""12"", ""13"", ""10"", ""11"", ""17"", ""16"", ""15"", ""14""], ""trial_index"": 14}"
A1945USNZHTROX:3OJSZ2ATDSWN70FWTB9C5R8XZQY75S,15,1487371976040,"{""rt"": [6453, 166, 1548], ""trial_type"": ""graph"", ""infoCost"": 0.05, ""minTime"": 45, ""actionTimes"": [6453, 7132, 9181], ""time_elapsed"": 1365400, ""actions"": [""right"", ""right"", ""down""], ""trialIndex"": 12, ""score"": 4.88, ""internal_node_id"": ""0.0-1.0-11.0"", ""clickTimes"": [572, 1230, 1673, 2517, 2975, 3512, 4128, 4585], ""path"": [1, 2, 6, 11], ""trialID"": 6, ""clicks"": [""12"", ""13"", ""10"", ""11"", ""17"", ""16"", ""15"", ""14""], ""trial_index"": 15}"
A1945USNZHTROX:3OJSZ2ATDSWN70FWTB9C5R8XZQY75S,16,1487372031020,"{""rt"": [8686, 353, 1396], ""trial_type"": ""graph"", ""infoCost"": 0.05, ""minTime"": 45, ""actionTimes"": [8686, 9554, 11464], ""time_elapsed"": 1420380, ""actions"": [""left"", ""left"", ""down""], ""trialIndex"": 13, ""score"": 3.36, ""internal_node_id"": ""0.0-1.0-12.0"", ""clickTimes"": [1727, 2227, 2803, 3395, 3977, 4555, 5107, 5684], ""path"": [1, 4, 8, 15], ""trialID"": 11, ""clicks"": [""12"", ""13"", ""10"", ""11"", ""17"", ""16"", ""15"", ""14""], ""trial_index"": 16}"
A1945USNZHTROX:3OJSZ2ATDSWN70FWTB9C5R8XZQY75S,17,1487372167396,"{""rt"": [10179, 225, 1554], ""trial_type"": ""graph"", ""infoCost"": 0.05, ""minTime"": 45, ""actionTimes"": [10179, 10917, 12977], ""time_elapsed"": 1556757, ""actions"": [""left"", ""left"", ""down""], ""trialIndex"": 14, ""score"": 6.56, ""internal_node_id"": ""0.0-1.0-13.0"", ""clickTimes"": [3626, 4255, 5012, 5518, 6223, 6717, 7199, 7771, 132807], ""path"": [1, 4, 8, 15], ""trialID"": 2, ""clicks"": [""12"", ""13"", ""10"", ""11"", ""17"", ""16"", ""15"", ""14"", ""9""], ""trial_index"": 17}"
A1945USNZHTROX:3OJSZ2ATDSWN70FWTB9C5R8XZQY75S,18,1487372238256,"{""rt"": [9861, 156, 2148], ""trial_type"": ""graph"", ""infoCost"": 0.05, ""minTime"": 45, ""actionTimes"": [9861, 10529, 13189], ""time_elapsed"": 1627616, ""actions"": [""left"", ""left"", ""up""], ""trialIndex"": 15, ""score"": 1, ""internal_node_id"": ""0.0-1.0-14.0"", ""clickTimes"": [1947, 2496, 3104, 3700, 4263, 4760, 5260, 6274], ""path"": [1, 4, 8, 14], ""trialID"": 10, ""clicks"": [""12"", ""13"", ""10"", ""11"", ""17"", ""16"", ""15"", ""14""], ""trial_index"": 18}"
A1945USNZHTROX:3OJSZ2ATDSWN70FWTB9C5R8XZQY75S,19,1487372286641,"{""rt"": [9233, 141, 1017], ""trial_type"": ""graph"", ""infoCost"": 0.05, ""minTime"": 45, ""actionTimes"": [9233, 9881, 11411], ""time_elapsed"": 1676002, ""actions"": [""left"", ""left"", ""down""], ""trialIndex"": 16, ""score"": 3.8, ""internal_node_id"": ""0.0-1.0-15.0"", ""clickTimes"": [2326, 2902, 3407, 4124, 4950, 5509, 6043, 6613], ""path"": [1, 4, 8, 15], ""trialID"": 14, ""clicks"": [""12"", ""13"", ""10"", ""11"", ""17"", ""16"", ""15"", ""14""], ""trial_index"": 19}"
A1945USNZHTROX:3OJSZ2ATDSWN70FWTB9C5R8XZQY75S,20,1487372387126,"{""rt"": [10069, 552, 1933], ""trial_type"": ""graph"", ""infoCost"": 0.05, ""minTime"": 45, ""actionTimes"": [10070, 11136, 13587], ""time_elapsed"": 1776486, ""actions"": [""left"", ""left"", ""up""], ""trialIndex"": 17, ""score"": 3.8, ""internal_node_id"": ""0.0-1.0-16.0"", ""clickTimes"": [1514, 2183, 2773, 3564, 4445, 5235, 6103, 6775], ""path"": [1, 4, 8, 14], ""trialID"": 0, ""clicks"": [""12"", ""13"", ""10"", ""11"", ""17"", ""16"", ""15"", ""14""], ""trial_index"": 20}"
A1945USNZHTROX:3OJSZ2ATDSWN70FWTB9C5R8XZQY75S,21,1487372439209,"{""rt"": [8890, 404, 763], ""trial_type"": ""graph"", ""infoCost"": 0.05, ""minTime"": 45, ""actionTimes"": [8890, 9809, 11087], ""time_elapsed"": 1828570, ""actions"": [""down"", ""down"", ""right""], ""trialIndex"": 18, ""score"": 4.64, ""internal_node_id"": ""0.0-1.0-17.0"", ""clickTimes"": [2142, 2770, 3292, 3826, 4695, 5295, 5838, 6803], ""path"": [1, 5, 9, 17], ""trialID"": 7, ""clicks"": [""12"", ""13"", ""10"", ""11"", ""17"", ""16"", ""15"", ""14""], ""trial_index"": 21}"
A1945USNZHTROX:3OJSZ2ATDSWN70FWTB9C5R8XZQY75S,22,1487372542707,"{""rt"": [11133, 89, 430], ""trial_type"": ""graph"", ""infoCost"": 0.05, ""minTime"": 45, ""actionTimes"": [11134, 11733, 12671], ""time_elapsed"": 1932068, ""actions"": [""down"", ""down"", ""right""], ""trialIndex"": 19, ""score"": 4.26, ""internal_node_id"": ""0.0-1.0-18.0"", ""clickTimes"": [3866, 4594, 5136, 5689, 6163, 6777, 7531, 8086, 101061], ""path"": [1, 5, 9, 17], ""trialID"": 1, ""clicks"": [""12"", ""13"", ""10"", ""11"", ""17"", ""16"", ""15"", ""14"", ""5""], ""trial_index"": 22}"
A1945USNZHTROX:3OJSZ2ATDSWN70FWTB9C5R8XZQY75S,23,1487372601519,"{""rt"": [7422, 200, 1058], ""trial_type"": ""graph"", ""infoCost"": 0.05, ""minTime"": 45, ""actionTimes"": [7422, 8133, 9711], ""time_elapsed"": 1990879, ""actions"": [""up"", ""up"", ""left""], ""trialIndex"": 20, ""score"": 4.08, ""internal_node_id"": ""0.0-1.0-19.0"", ""clickTimes"": [765, 1438, 1935, 2437, 2961, 3821, 4377, 4989], ""path"": [1, 3, 7, 12], ""trialID"": 4, ""clicks"": [""12"", ""13"", ""10"", ""11"", ""17"", ""16"", ""15"", ""14""], ""trial_index"": 23}"
A1945USNZHTROX:3OJSZ2ATDSWN70FWTB9C5R8XZQY75S,24,1487372610673,"{""rt"": 8126, ""trial_type"": ""button-response"", ""button_pressed"": 0, ""stimulus"": ""<h1 id=\""thiscompletesthehit\"">This completes the HIT</h1>\n\n<p>One or your profits was randomly selected as your bonus. You will be awarded a bonus of $4.88</p>"", ""internal_node_id"": ""0.0-2.0"", ""time_elapsed"": 2000034, ""trial_index"": 24}"
A1CH3TODZNQCES:3IX2EGZR7BJ5WIEWRRBCBII2I3NJRP,0,1487369455930,"{""rt"": 75473, ""trial_type"": ""instructions"", ""view_history"": ""[{\""page_index\"":0,\""viewing_time\"":19342},{\""page_index\"":1,\""viewing_time\"":20243},{\""page_index\"":2,\""viewing_time\"":35886}]"", ""internal_node_id"": ""0.0-0.0-0.0"", ""time_elapsed"": 75475, ""trial_index"": 0}"
A1CH3TODZNQCES:3IX2EGZR7BJ5WIEWRRBCBII2I3NJRP,1,1487369507594,"{""rt"": 46818, ""trial_type"": ""survey-multi-choice"", ""responses"": ""[\""4\"",\""True\"",\""$0.05\"",\""As many or as few as I wish\"",\""My earning for each round is equal to the <i>sum</i> of the values of all locations I visit (minus the cost of making observations), and I will be paid the earnings from one of the 20 rounds.\""]"", ""internal_node_id"": ""0.0-0.0-1.0"", ""time_elapsed"": 127140, ""questions"": ""[\""How many flights are taken per round?\"",\""True or false: The hidden values will change each time I start a new round.\"",\""How much does it cost to observe each hidden value?\"",\""How many hidden values am I allowed to observe in each round?\"",\""Which statement is TRUE?\""]"", ""correct"": [false, true, true, true, true], ""trial_index"": 1}"
A1CH3TODZNQCES:3IX2EGZR7BJ5WIEWRRBCBII2I3NJRP,2,1487369609100,"{""rt"": 100504, ""trial_type"": ""instructions"", ""view_history"": ""[{\""page_index\"":0,\""viewing_time\"":39579},{\""page_index\"":1,\""viewing_time\"":30667},{\""page_index\"":2,\""viewing_time\"":30257}]"", ""internal_node_id"": ""0.0-0.1-0.1"", ""time_elapsed"": 228646, ""trial_index"": 2}"
A1CH3TODZNQCES:3IX2EGZR7BJ5WIEWRRBCBII2I3NJRP,3,1487369628246,"{""rt"": 18126, ""trial_type"": ""survey-multi-choice"", ""responses"": ""[\""3\"",\""True\"",\""$0.05\"",\""As many or as few as I wish\"",\""My earning for each round is equal to the <i>sum</i> of the values of all locations I visit (minus the cost of making observations), and I will be paid the earnings from one of the 20 rounds.\""]"", ""internal_node_id"": ""0.0-0.1-1.1"", ""time_elapsed"": 247791, ""questions"": ""[\""How many flights are taken per round?\"",\""True or false: The hidden values will change each time I start a new round.\"",\""How much does it cost to observe each hidden value?\"",\""How many hidden values am I allowed to observe in each round?\"",\""Which statement is TRUE?\""]"", ""correct"": [true, true, true, true, true], ""trial_index"": 3}"
A1CH3TODZNQCES:3IX2EGZR7BJ5WIEWRRBCBII2I3NJRP,4,1487369687591,"{""rt"": [28281, 1664, 1399], ""trial_type"": ""graph"", ""infoCost"": 0.05, ""minTime"": 45, ""actionTimes"": [28282, 30454, 32374], ""time_elapsed"": 307137, ""actions"": [""down"", ""down"", ""right""], ""trialIndex"": 1, ""score"": 2.07, ""internal_node_id"": ""0.0-1.0-0.0"", ""clickTimes"": [4735, 8622, 11627, 12484, 13176, 15227, 15948, 16587, 17198, 17977, 19272, 19866], ""path"": [1, 5, 9, 17], ""trialID"": 9, ""clicks"": [""9"", ""4"", ""8"", ""15"", ""14"", ""2"", ""6"", ""10"", ""11"", ""5"", ""16"", ""17""], ""trial_index"": 4}"
A1CH3TODZNQCES:3IX2EGZR7BJ5WIEWRRBCBII2I3NJRP,5,1487369753091,"{""rt"": [10363, 304, 504], ""trial_type"": ""graph"", ""infoCost"": 0.05, ""minTime"": 45, ""actionTimes"": [10363, 11185, 12201], ""time_elapsed"": 372636, ""actions"": [""up"", ""up"", ""right""], ""trialIndex"": 2, ""score"": 3.54, ""internal_node_id"": ""0.0-1.0-1.0"", ""clickTimes"": [3361, 4920, 5885, 6499], ""path"": [1, 3, 7, 13], ""trialID"": 10, ""clicks"": [""3"", ""7"", ""12"", ""13""], ""trial_index"": 5}"
A1CH3TODZNQCES:3IX2EGZR7BJ5WIEWRRBCBII2I3NJRP,6,1487369804247,"{""rt"": [8756, 162, 95], ""trial_type"": ""graph"", ""infoCost"": 0.05, ""minTime"": 45, ""actionTimes"": [8756, 9437, 10036], ""time_elapsed"": 423792, ""actions"": [""down"", ""down"", ""right""], ""trialIndex"": 3, ""score"": 4.28, ""internal_node_id"": ""0.0-1.0-2.0"", ""clickTimes"": [1673, 2145, 2818, 3214, 5765, 6163, 6512, 7139], ""path"": [1, 5, 9, 17], ""trialID"": 18, ""clicks"": [""8"", ""15"", ""14"", ""4"", ""5"", ""9"", ""16"", ""17""], ""trial_index"": 6}"
A1CH3TODZNQCES:3IX2EGZR7BJ5WIEWRRBCBII2I3NJRP,7,1487369860608,"{""rt"": [4310, 704, 1094], ""trial_type"": ""graph"", ""infoCost"": 0.05, ""minTime"": 45, ""actionTimes"": [4310, 5519, 7126], ""time_elapsed"": 480154, ""actions"": [""right"", ""right"", ""up""], ""trialIndex"": 4, ""score"": 1.77, ""internal_node_id"": ""0.0-1.0-3.0"", ""clickTimes"": [], ""path"": [1, 2, 6, 10], ""trialID"": 13, ""clicks"": [], ""trial_index"": 7}"
A1CH3TODZNQCES:3IX2EGZR7BJ5WIEWRRBCBII2I3NJRP,8,1487370007647,"{""rt"": [142898, 303, 228], ""trial_type"": ""graph"", ""infoCost"": 0.05, ""minTime"": 45, ""actionTimes"": [142898, 143705, 144448], ""time_elapsed"": 627193, ""actions"": [""right"", ""right"", ""down""], ""trialIndex"": 5, ""score"": 5.28, ""internal_node_id"": ""0.0-1.0-4.0"", ""clickTimes"": [], ""path"": [1, 2, 6, 11], ""trialID"": 6, ""clicks"": [], ""trial_index"": 8}"
A1CH3TODZNQCES:3IX2EGZR7BJ5WIEWRRBCBII2I3NJRP,9,1487370201669,"{""rt"": [189337, 552, 337], ""trial_type"": ""graph"", ""infoCost"": 0.05, ""minTime"": 45, ""actionTimes"": [189337, 190406, 191256], ""time_elapsed"": 821215, ""actions"": [""up"", ""up"", ""right""], ""trialIndex"": 6, ""score"": 0.56, ""internal_node_id"": ""0.0-1.0-5.0"", ""clickTimes"": [], ""path"": [1, 3, 7, 13], ""trialID"": 3, ""clicks"": [], ""trial_index"": 9}"
A1CH3TODZNQCES:3IX2EGZR7BJ5WIEWRRBCBII2I3NJRP,10,1487370296337,"{""rt"": [11674, 210, 1015], ""trial_type"": ""graph"", ""infoCost"": 0.05, ""minTime"": 45, ""actionTimes"": [11675, 12393, 13914], ""time_elapsed"": 915882, ""actions"": [""right"", ""right"", ""up""], ""trialIndex"": 7, ""score"": 2.17, ""internal_node_id"": ""0.0-1.0-6.0"", ""clickTimes"": [2197, 3102, 3736, 4583, 4923, 5342, 6396, 6739, 7189], ""path"": [1, 2, 6, 10], ""trialID"": 8, ""clicks"": [""15"", ""8"", ""4"", ""9"", ""5"", ""17"", ""2"", ""6"", ""10""], ""trial_index"": 10}"
A1CH3TODZNQCES:3IX2EGZR7BJ5WIEWRRBCBII2I3NJRP,11,1487370347886,"{""rt"": [47157, 155, 121], ""trial_type"": ""graph"", ""infoCost"": 0.05, ""minTime"": 45, ""actionTimes"": [47157, 47820, 48452], ""time_elapsed"": 967432, ""actions"": [""up"", ""up"", ""right""], ""trialIndex"": 8, ""score"": 0.54, ""internal_node_id"": ""0.0-1.0-7.0"", ""clickTimes"": [], ""path"": [1, 3, 7, 13], ""trialID"": 4, ""clicks"": [], ""trial_index"": 11}"
A1CH3TODZNQCES:3IX2EGZR7BJ5WIEWRRBCBII2I3NJRP,12,1487370459761,"{""rt"": [17048, 239, 323], ""trial_type"": ""graph"", ""infoCost"": 0.05, ""minTime"": 45, ""actionTimes"": [17048, 17801, 18634], ""time_elapsed"": 1079307, ""actions"": [""left"", ""left"", ""down""], ""trialIndex"": 9, ""score"": 3.87, ""internal_node_id"": ""0.0-1.0-8.0"", ""clickTimes"": [7435, 7852, 8178, 10083, 10339, 11368, 11675, 12992, 13677, 13939], ""path"": [1, 4, 8, 15], ""trialID"": 15, ""clicks"": [""5"", ""9"", ""17"", ""7"", ""13"", ""6"", ""11"", ""10"", ""8"", ""15""], ""trial_index"": 12}"
A1CH3TODZNQCES:3IX2EGZR7BJ5WIEWRRBCBII2I3NJRP,13,1487370506664,"{""rt"": [10458, 215, 144], ""trial_type"": ""graph"", ""infoCost"": 0.05, ""minTime"": 45, ""actionTimes"": [10459, 11193, 11866], ""time_elapsed"": 1126209, ""actions"": [""left"", ""left"", ""down""], ""trialIndex"": 10, ""score"": 6.91, ""internal_node_id"": ""0.0-1.0-9.0"", ""clickTimes"": [7690, 8670], ""path"": [1, 4, 8, 15], ""trialID"": 2, ""clicks"": [""8"", ""15""], ""trial_index"": 13}"
A1CH3TODZNQCES:3IX2EGZR7BJ5WIEWRRBCBII2I3NJRP,14,1487370564080,"{""rt"": [35961, 123, 93], ""trial_type"": ""graph"", ""infoCost"": 0.05, ""minTime"": 45, ""actionTimes"": [35961, 36600, 37203], ""time_elapsed"": 1183626, ""actions"": [""down"", ""down"", ""right""], ""trialIndex"": 11, ""score"": 4.91, ""internal_node_id"": ""0.0-1.0-10.0"", ""clickTimes"": [25296, 26121, 26675, 27017, 27959, 28261, 28915, 29154, 30808, 31478, 32471, 32725], ""path"": [1, 5, 9, 17], ""trialID"": 19, ""clicks"": [""3"", ""4"", ""5"", ""2"", ""8"", ""15"", ""6"", ""11"", ""7"", ""12"", ""9"", ""17""], ""trial_index"": 14}"
A1CH3TODZNQCES:3IX2EGZR7BJ5WIEWRRBCBII2I3NJRP,15,1487370672720,"{""rt"": [30058, 240, 1], ""trial_type"": ""graph"", ""infoCost"": 0.05, ""minTime"": 45, ""actionTimes"": [30058, 30811, 31322], ""time_elapsed"": 1292266, ""actions"": [""down"", ""down"", ""right""], ""trialIndex"": 12, ""score"": 1.35, ""internal_node_id"": ""0.0-1.0-11.0"", ""clickTimes"": [1012, 1333, 1677, 2583, 3955, 4235, 5246, 5554, 6051, 7269, 7510, 8927, 9712, 10468, 12372, 13114], ""path"": [1, 5, 9, 17], ""trialID"": 12, ""clicks"": [""4"", ""8"", ""15"", ""2"", ""6"", ""11"", ""7"", ""3"", ""13"", ""5"", ""9"", ""12"", ""17"", ""16"", ""10"", ""14""], ""trial_index"": 15}"
A1CH3TODZNQCES:3IX2EGZR7BJ5WIEWRRBCBII2I3NJRP,16,1487370749927,"{""rt"": [9043, 1546, 393], ""trial_type"": ""graph"", ""infoCost"": 0.05, ""minTime"": 45, ""actionTimes"": [9043, 11097, 11993], ""time_elapsed"": 1369473, ""actions"": [""left"", ""left"", ""down""], ""trialIndex"": 13, ""score"": 3.12, ""internal_node_id"": ""0.0-1.0-12.0"", ""clickTimes"": [], ""path"": [1, 4, 8, 15], ""trialID"": 17, ""clicks"": [], ""trial_index"": 16}"
A1CH3TODZNQCES:3IX2EGZR7BJ5WIEWRRBCBII2I3NJRP,17,1487370813937,"{""rt"": [2080, 140, 4480], ""trial_type"": ""graph"", ""infoCost"": 0.05, ""minTime"": 45, ""actionTimes"": [2080, 2738, 7728], ""time_elapsed"": 1433483, ""actions"": [""up"", ""up"", ""left""], ""trialIndex"": 14, ""score"": 4.85, ""internal_node_id"": ""0.0-1.0-13.0"", ""clickTimes"": [5212, 5982], ""path"": [1, 3, 7, 12], ""trialID"": 7, ""clicks"": [""13"", ""12""], ""trial_index"": 17}"
A1CH3TODZNQCES:3IX2EGZR7BJ5WIEWRRBCBII2I3NJRP,18,1487370862440,"{""rt"": [24889, 236, 134], ""trial_type"": ""graph"", ""infoCost"": 0.05, ""minTime"": 45, ""actionTimes"": [24889, 25632, 26280], ""time_elapsed"": 1481986, ""actions"": [""down"", ""down"", ""right""], ""trialIndex"": 15, ""score"": 3.91, ""internal_node_id"": ""0.0-1.0-14.0"", ""clickTimes"": [3575, 4310, 5533, 5871, 6351, 8555, 8963, 9523, 10943, 11350, 11711, 12106, 12809, 13049, 13362, 13799], ""path"": [1, 5, 9, 17], ""trialID"": 1, ""clicks"": [""2"", ""4"", ""15"", ""8"", ""14"", ""10"", ""6"", ""11"", ""12"", ""7"", ""3"", ""13"", ""9"", ""5"", ""16"", ""17""], ""trial_index"": 18}"
A1CH3TODZNQCES:3IX2EGZR7BJ5WIEWRRBCBII2I3NJRP,19,1487370939795,"{""rt"": [3170, 232, 234], ""trial_type"": ""graph"", ""infoCost"": 0.05, ""minTime"": 45, ""actionTimes"": [3170, 3914, 4650], ""time_elapsed"": 1559341, ""actions"": [""up"", ""up"", ""left""], ""trialIndex"": 16, ""score"": 2.98, ""internal_node_id"": ""0.0-1.0-15.0"", ""clickTimes"": [], ""path"": [1, 3, 7, 12], ""trialID"": 14, ""clicks"": [], ""trial_index"": 19}"
A1CH3TODZNQCES:3IX2EGZR7BJ5WIEWRRBCBII2I3NJRP,20,1487370987061,"{""rt"": [2818, 49, 186], ""trial_type"": ""graph"", ""infoCost"": 0.05, ""minTime"": 45, ""actionTimes"": [2818, 3370, 4073], ""time_elapsed"": 1606607, ""actions"": [""left"", ""left"", ""down""], ""trialIndex"": 17, ""score"": 4.17, ""internal_node_id"": ""0.0-1.0-16.0"", ""clickTimes"": [], ""path"": [1, 4, 8, 15], ""trialID"": 5, ""clicks"": [], ""trial_index"": 20}"
A1CH3TODZNQCES:3IX2EGZR7BJ5WIEWRRBCBII2I3NJRP,21,1487371033281,"{""rt"": [38508, 779, 114], ""trial_type"": ""graph"", ""infoCost"": 0.05, ""minTime"": 45, ""actionTimes"": [38508, 39808, 40424], ""time_elapsed"": 1652827, ""actions"": [""down"", ""down"", ""left""], ""trialIndex"": 18, ""score"": 3.23, ""internal_node_id"": ""0.0-1.0-17.0"", ""clickTimes"": [1342, 1683, 2035, 2337, 3298, 3613, 3921, 4906, 5128, 6238, 6444, 7715, 8318, 10016, 10256, 10602], ""path"": [1, 5, 9, 16], ""trialID"": 11, ""clicks"": [""4"", ""3"", ""2"", ""5"", ""9"", ""16"", ""17"", ""6"", ""11"", ""8"", ""15"", ""14"", ""10"", ""7"", ""12"", ""13""], ""trial_index"": 21}"
A1CH3TODZNQCES:3IX2EGZR7BJ5WIEWRRBCBII2I3NJRP,22,1487371092359,"{""rt"": [1559, 430, 150], ""trial_type"": ""graph"", ""infoCost"": 0.05, ""minTime"": 45, ""actionTimes"": [1559, 2504, 3174], ""time_elapsed"": 1711905, ""actions"": [""down"", ""down"", ""left""], ""trialIndex"": 19, ""score"": -1.39, ""internal_node_id"": ""0.0-1.0-18.0"", ""clickTimes"": [], ""path"": [1, 5, 9, 16], ""trialID"": 16, ""clicks"": [], ""trial_index"": 22}"
A1CH3TODZNQCES:3IX2EGZR7BJ5WIEWRRBCBII2I3NJRP,23,1487371209615,"{""rt"": [110932, 156, 970], ""trial_type"": ""graph"", ""infoCost"": 0.05, ""minTime"": 45, ""actionTimes"": [110933, 111596, 113076], ""time_elapsed"": 1829161, ""actions"": [""up"", ""up"", ""left""], ""trialIndex"": 20, ""score"": 4.07, ""internal_node_id"": ""0.0-1.0-19.0"", ""clickTimes"": [3212, 3598, 4464, 4796, 5645, 5892, 6453, 10027, 10438, 10953, 11784, 12162, 12575, 13408, 13993, 14488], ""path"": [1, 3, 7, 12], ""trialID"": 0, ""clicks"": [""4"", ""3"", ""2"", ""5"", ""8"", ""15"", ""14"", ""6"", ""11"", ""10"", ""12"", ""13"", ""7"", ""9"", ""17"", ""16""], ""trial_index"": 23}"
A1CH3TODZNQCES:3IX2EGZR7BJ5WIEWRRBCBII2I3NJRP,24,1487371216587,"{""rt"": 5965, ""trial_type"": ""button-response"", ""button_pressed"": 0, ""stimulus"": ""<h1 id=\""thiscompletesthehit\"">This completes the HIT</h1>\n\n<p>One or your profits was randomly selected as your bonus. You will be awarded a bonus of $2.17</p>"", ""internal_node_id"": ""0.0-2.0"", ""time_elapsed"": 1836133, ""trial_index"": 24}"
A1HWB810RJBV2K:3SLE99ER0ND8GQ2BDGS8ZX1OJFXBZP,0,1487369643995,"{""rt"": 55879, ""trial_type"": ""instructions"", ""view_history"": ""[{\""page_index\"":0,\""viewing_time\"":44784},{\""page_index\"":1,\""viewing_time\"":6085},{\""page_index\"":2,\""viewing_time\"":5009}]"", ""internal_node_id"": ""0.0-0.0-0.0"", ""time_elapsed"": 55880, ""trial_index"": 0}"
A1HWB810RJBV2K:3SLE99ER0ND8GQ2BDGS8ZX1OJFXBZP,1,1487369670888,"{""rt"": 24459, ""trial_type"": ""survey-multi-choice"", ""responses"": ""[\""1\"",\""True\"",\""$0.05\"",\""As many or as few as I wish\"",\""My earning for each round is equal to the value of one of the locations I vist (minus the cost of making observations), and I will actually be paid the earnings from one of the 20 rounds.\""]"", ""internal_node_id"": ""0.0-0.0-1.0"", ""time_elapsed"": 82773, ""questions"": ""[\""How many flights are taken per round?\"",\""True or false: The hidden values will change each time I start a new round.\"",\""How much does it cost to observe each hidden value?\"",\""How many hidden values am I allowed to observe in each round?\"",\""Which statement is TRUE?\""]"", ""correct"": [false, true, true, true, false], ""trial_index"": 1}"
A1HWB810RJBV2K:3SLE99ER0ND8GQ2BDGS8ZX1OJFXBZP,2,1487369731653,"{""rt"": 59763, ""trial_type"": ""instructions"", ""view_history"": ""[{\""page_index\"":0,\""viewing_time\"":20466},{\""page_index\"":1,\""viewing_time\"":31999},{\""page_index\"":2,\""viewing_time\"":7298}]"", ""internal_node_id"": ""0.0-0.1-0.1"", ""time_elapsed"": 143537, ""trial_index"": 2}"
A1HWB810RJBV2K:3SLE99ER0ND8GQ2BDGS8ZX1OJFXBZP,3,1487369771055,"{""rt"": 34691, ""trial_type"": ""survey-multi-choice"", ""responses"": ""[\""1\"",\""True\"",\""$0.05\"",\""As many or as few as I wish\"",\""My earning for each round is equal to the <i>sum</i> of the values of all locations I visit (minus the cost of making observations), and I will be paid the earnings from one of the 20 rounds.\""]"", ""internal_node_id"": ""0.0-0.1-1.1"", ""time_elapsed"": 182940, ""questions"": ""[\""How many flights are taken per round?\"",\""True or false: The hidden values will change each time I start a new round.\"",\""How much does it cost to observe each hidden value?\"",\""How many hidden values am I allowed to observe in each round?\"",\""Which statement is TRUE?\""]"", ""correct"": [false, true, true, true, true], ""trial_index"": 3}"
A1HWB810RJBV2K:3SLE99ER0ND8GQ2BDGS8ZX1OJFXBZP,4,1487369785490,"{""rt"": 13435, ""trial_type"": ""instructions"", ""view_history"": ""[{\""page_index\"":0,\""viewing_time\"":12187},{\""page_index\"":1,\""viewing_time\"":784},{\""page_index\"":2,\""viewing_time\"":463}]"", ""internal_node_id"": ""0.0-0.2-0.2"", ""time_elapsed"": 197375, ""trial_index"": 4}"
A1HWB810RJBV2K:3SLE99ER0ND8GQ2BDGS8ZX1OJFXBZP,5,1487369820488,"{""rt"": 11594, ""trial_type"": ""survey-multi-choice"", ""responses"": ""[\""2\"",\""True\"",\""$0.05\"",\""As many or as few as I wish\"",\""My earning for each round is equal to the <i>sum</i> of the values of all locations I visit (minus the cost of making observations), and I will be paid the earnings from one of the 20 rounds.\""]"", ""internal_node_id"": ""0.0-0.2-1.2"", ""time_elapsed"": 232373, ""questions"": ""[\""How many flights are taken per round?\"",\""True or false: The hidden values will change each time I start a new round.\"",\""How much does it cost to observe each hidden value?\"",\""How many hidden values am I allowed to observe in each round?\"",\""Which statement is TRUE?\""]"", ""correct"": [false, true, true, true, true], ""trial_index"": 5}"
A1HWB810RJBV2K:3SLE99ER0ND8GQ2BDGS8ZX1OJFXBZP,6,1487369852651,"{""rt"": 31163, ""trial_type"": ""instructions"", ""view_history"": ""[{\""page_index\"":0,\""viewing_time\"":2430},{\""page_index\"":1,\""viewing_time\"":15091},{\""page_index\"":2,\""viewing_time\"":13641}]"", ""internal_node_id"": ""0.0-0.3-0.3"", ""time_elapsed"": 264536, ""trial_index"": 6}"
A1HWB810RJBV2K:3SLE99ER0ND8GQ2BDGS8ZX1OJFXBZP,7,1487369868409,"{""rt"": 13181, ""trial_type"": ""survey-multi-choice"", ""responses"": ""[\""2\"",\""False\"",\""$0.05\"",\""At most 10\"",\""My earning for each round is equal to the value of one of the locations I vist (minus the cost of making observations), and I will actually be paid the earnings from one of the 20 rounds.\""]"", ""internal_node_id"": ""0.0-0.3-1.3"", ""time_elapsed"": 280293, ""questions"": ""[\""How many flights are taken per round?\"",\""True or false: The hidden values will change each time I start a new round.\"",\""How much does it cost to observe each hidden value?\"",\""How many hidden values am I allowed to observe in each round?\"",\""Which statement is TRUE?\""]"", ""correct"": [false, false, true, false, false], ""trial_index"": 7}"
A1HWB810RJBV2K:3SLE99ER0ND8GQ2BDGS8ZX1OJFXBZP,8,1487369918779,"{""rt"": 49369, ""trial_type"": ""instructions"", ""view_history"": ""[{\""page_index\"":0,\""viewing_time\"":38383},{\""page_index\"":1,\""viewing_time\"":6689},{\""page_index\"":2,\""viewing_time\"":4296}]"", ""internal_node_id"": ""0.0-0.4-0.4"", ""time_elapsed"": 330664, ""trial_index"": 8}"
A1HWB810RJBV2K:3SLE99ER0ND8GQ2BDGS8ZX1OJFXBZP,9,1487370120484,"{""rt"": 199318, ""trial_type"": ""survey-multi-choice"", ""responses"": ""[\""2\"",\""True\"",\""$0.05\"",\""As many or as few as I wish\"",\""My earning for each round is equal to the value of one of the locations I vist (minus the cost of making observations), and I will actually be paid the earnings from one of the 20 rounds.\""]"", ""internal_node_id"": ""0.0-0.4-1.4"", ""time_elapsed"": 532369, ""questions"": ""[\""How many flights are taken per round?\"",\""True or false: The hidden values will change each time I start a new round.\"",\""How much does it cost to observe each hidden value?\"",\""How many hidden values am I allowed to observe in each round?\"",\""Which statement is TRUE?\""]"", ""correct"": [false, true, true, true, false], ""trial_index"": 9}"
A1HWB810RJBV2K:3SLE99ER0ND8GQ2BDGS8ZX1OJFXBZP,10,1487370125746,"{""rt"": 4262, ""trial_type"": ""instructions"", ""view_history"": ""[{\""page_index\"":0,\""viewing_time\"":2421},{\""page_index\"":1,\""viewing_time\"":1063},{\""page_index\"":2,\""viewing_time\"":777}]"", ""internal_node_id"": ""0.0-0.5-0.5"", ""time_elapsed"": 537631, ""trial_index"": 10}"
A1HWB810RJBV2K:3SLE99ER0ND8GQ2BDGS8ZX1OJFXBZP,11,1487370235329,"{""rt"": 107451, ""trial_type"": ""survey-multi-choice"", ""responses"": ""[\""1\"",\""True\"",\""$0.05\"",\""At most 15\"",\""My earning for each round is equal to the value of one of the locations I vist (minus the cost of making observations), and I will actually be paid the earnings from one of the 20 rounds.\""]"", ""internal_node_id"": ""0.0-0.5-1.5"", ""time_elapsed"": 647214, ""questions"": ""[\""How many flights are taken per round?\"",\""True or false: The hidden values will change each time I start a new round.\"",\""How much does it cost to observe each hidden value?\"",\""How many hidden values am I allowed to observe in each round?\"",\""Which statement is TRUE?\""]"", ""correct"": [false, true, true, false, false], ""trial_index"": 11}"
A1HWB810RJBV2K:3SLE99ER0ND8GQ2BDGS8ZX1OJFXBZP,12,1487370239984,"{""rt"": 3653, ""trial_type"": ""instructions"", ""view_history"": ""[{\""page_index\"":0,\""viewing_time\"":2084},{\""page_index\"":1,\""viewing_time\"":1082},{\""page_index\"":2,\""viewing_time\"":487}]"", ""internal_node_id"": ""0.0-0.6-0.6"", ""time_elapsed"": 651868, ""trial_index"": 12}"
A1HWB810RJBV2K:3SLE99ER0ND8GQ2BDGS8ZX1OJFXBZP,13,1487370319931,"{""rt"": 77728, ""trial_type"": ""survey-multi-choice"", ""responses"": ""[\""1\"",\""True\"",\""$0.05\"",\""At most 1\"",\""My earning for each round is equal to the value of one of the locations I vist (minus the cost of making observations), and I will actually be paid the earnings from one of the 20 rounds.\""]"", ""internal_node_id"": ""0.0-0.6-1.6"", ""time_elapsed"": 731816, ""questions"": ""[\""How many flights are taken per round?\"",\""True or false: The hidden values will change each time I start a new round.\"",\""How much does it cost to observe each hidden value?\"",\""How many hidden values am I allowed to observe in each round?\"",\""Which statement is TRUE?\""]"", ""correct"": [false, true, true, false, false], ""trial_index"": 13}"
A1HWB810RJBV2K:3SLE99ER0ND8GQ2BDGS8ZX1OJFXBZP,14,1487370324147,"{""rt"": 3215, ""trial_type"": ""instructions"", ""view_history"": ""[{\""page_index\"":0,\""viewing_time\"":1551},{\""page_index\"":1,\""viewing_time\"":952},{\""page_index\"":2,\""viewing_time\"":711}]"", ""internal_node_id"": ""0.0-0.7-0.7"", ""time_elapsed"": 736032, ""trial_index"": 14}"
A1HWB810RJBV2K:3SLE99ER0ND8GQ2BDGS8ZX1OJFXBZP,15,1487370394262,"{""rt"": 67878, ""trial_type"": ""survey-multi-choice"", ""responses"": ""[\""1\"",\""True\"",\""$0.05\"",\""As many or as few as I wish\"",\""My earning for each round is equal to the value of one of the locations I vist (minus the cost of making observations), and I will actually be paid the earnings from one of the 20 rounds.\""]"", ""internal_node_id"": ""0.0-0.7-1.7"", ""time_elapsed"": 806147, ""questions"": ""[\""How many flights are taken per round?\"",\""True or false: The hidden values will change each time I start a new round.\"",\""How much does it cost to observe each hidden value?\"",\""How many hidden values am I allowed to observe in each round?\"",\""Which statement is TRUE?\""]"", ""correct"": [false, true, true, true, false], ""trial_index"": 15}"
A1HWB810RJBV2K:3SLE99ER0ND8GQ2BDGS8ZX1OJFXBZP,16,1487370397821,"{""rt"": 2557, ""trial_type"": ""instructions"", ""view_history"": ""[{\""page_index\"":0,\""viewing_time\"":1299},{\""page_index\"":1,\""viewing_time\"":760},{\""page_index\"":2,\""viewing_time\"":498}]"", ""internal_node_id"": ""0.0-0.8-0.8"", ""time_elapsed"": 809706, ""trial_index"": 16}"
A1HWB810RJBV2K:3SLE99ER0ND8GQ2BDGS8ZX1OJFXBZP,17,1487370543677,"{""rt"": 143796, ""trial_type"": ""survey-multi-choice"", ""responses"": ""[\""1\"",\""True\"",\""$0.05\"",\""As many or as few as I wish\"",\""My earning for each round is equal to the <i>sum</i> of the values of all locations I visit (minus the cost of making observations), and I will be paid the earnings from one of the 20 rounds.\""]"", ""internal_node_id"": ""0.0-0.8-1.8"", ""time_elapsed"": 955562, ""questions"": ""[\""How many flights are taken per round?\"",\""True or false: The hidden values will change each time I start a new round.\"",\""How much does it cost to observe each hidden value?\"",\""How many hidden values am I allowed to observe in each round?\"",\""Which statement is TRUE?\""]"", ""correct"": [false, true, true, true, true], ""trial_index"": 17}"
A1HWB810RJBV2K:3SLE99ER0ND8GQ2BDGS8ZX1OJFXBZP,18,1487370547653,"{""rt"": 2976, ""trial_type"": ""instructions"", ""view_history"": ""[{\""page_index\"":0,\""viewing_time\"":1687},{\""page_index\"":1,\""viewing_time\"":840},{\""page_index\"":2,\""viewing_time\"":449}]"", ""internal_node_id"": ""0.0-0.9-0.9"", ""time_elapsed"": 959538, ""trial_index"": 18}"
A1HWB810RJBV2K:3SLE99ER0ND8GQ2BDGS8ZX1OJFXBZP,19,1487370573521,"{""rt"": 23498, ""trial_type"": ""survey-multi-choice"", ""responses"": ""[\""1\"",\""True\"",\""$0.00\"",\""As many or as few as I wish\"",\""My earning for each round is equal to the value of one of the locations I vist (minus the cost of making observations), and I will actually be paid the earnings from one of the 20 rounds.\""]"", ""internal_node_id"": ""0.0-0.9-1.9"", ""time_elapsed"": 985406, ""questions"": ""[\""How many flights are taken per round?\"",\""True or false: The hidden values will change each time I start a new round.\"",\""How much does it cost to observe each hidden value?\"",\""How many hidden values am I allowed to observe in each round?\"",\""Which statement is TRUE?\""]"", ""correct"": [false, true, false, true, false], ""trial_index"": 19}"
A1HWB810RJBV2K:3SLE99ER0ND8GQ2BDGS8ZX1OJFXBZP,20,1487370576725,"{""rt"": 2203, ""trial_type"": ""instructions"", ""view_history"": ""[{\""page_index\"":0,\""viewing_time\"":1282},{\""page_index\"":1,\""viewing_time\"":529},{\""page_index\"":2,\""viewing_time\"":392}]"", ""internal_node_id"": ""0.0-0.10-0.10"", ""time_elapsed"": 988609, ""trial_index"": 20}"
A1HWB810RJBV2K:3SLE99ER0ND8GQ2BDGS8ZX1OJFXBZP,21,1487370591679,"{""rt"": 12679, ""trial_type"": ""survey-multi-choice"", ""responses"": ""[\""1\"",\""True\"",\""$0.00\"",\""At most 15\"",\""My earning for each round is equal to the value of one of the locations I vist (minus the cost of making observations), and I will actually be paid the earnings from one of the 20 rounds.\""]"", ""internal_node_id"": ""0.0-0.10-1.10"", ""time_elapsed"": 1003564, ""questions"": ""[\""How many flights are taken per round?\"",\""True or false: The hidden values will change each time I start a new round.\"",\""How much does it cost to observe each hidden value?\"",\""How many hidden values am I allowed to observe in each round?\"",\""Which statement is TRUE?\""]"", ""correct"": [false, true, false, false, false], ""trial_index"": 21}"
A1HWB810RJBV2K:3SLE99ER0ND8GQ2BDGS8ZX1OJFXBZP,22,1487370595399,"{""rt"": 2720, ""trial_type"": ""instructions"", ""view_history"": ""[{\""page_index\"":0,\""viewing_time\"":1367},{\""page_index\"":1,\""viewing_time\"":671},{\""page_index\"":2,\""viewing_time\"":681}]"", ""internal_node_id"": ""0.0-0.11-0.11"", ""time_elapsed"": 1007284, ""trial_index"": 22}"
A1HWB810RJBV2K:3SLE99ER0ND8GQ2BDGS8ZX1OJFXBZP,23,1487370693583,"{""rt"": 95943, ""trial_type"": ""survey-multi-choice"", ""responses"": ""[\""1\"",\""True\"",\""$0.00\"",\""At most 5\"",\""My earning for each round is equal to the value of one of the locations I vist (minus the cost of making observations), and I will actually be paid the earnings from one of the 20 rounds.\""]"", ""internal_node_id"": ""0.0-0.11-1.11"", ""time_elapsed"": 1105468, ""questions"": ""[\""How many flights are taken per round?\"",\""True or false: The hidden values will change each time I start a new round.\"",\""How much does it cost to observe each hidden value?\"",\""How many hidden values am I allowed to observe in each round?\"",\""Which statement is TRUE?\""]"", ""correct"": [false, true, false, false, false], ""trial_index"": 23}"
A1HWB810RJBV2K:3SLE99ER0ND8GQ2BDGS8ZX1OJFXBZP,24,1487370696960,"{""rt"": 2375, ""trial_type"": ""instructions"", ""view_history"": ""[{\""page_index\"":0,\""viewing_time\"":1319},{\""page_index\"":1,\""viewing_time\"":624},{\""page_index\"":2,\""viewing_time\"":431}]"", ""internal_node_id"": ""0.0-0.12-0.12"", ""time_elapsed"": 1108844, ""trial_index"": 24}"
A1HWB810RJBV2K:3SLE99ER0ND8GQ2BDGS8ZX1OJFXBZP,25,1487370902380,"{""rt"": 204392, ""trial_type"": ""survey-multi-choice"", ""responses"": ""[\""3\"",\""True\"",\""$0.05\"",\""As many or as few as I wish\"",\""My earning for each round is equal to the <i>sum</i> of the values of all locations I visit (minus the cost of making observations), and I will be paid the earnings from one of the 20 rounds.\""]"", ""internal_node_id"": ""0.0-0.12-1.12"", ""time_elapsed"": 1314265, ""questions"": ""[\""How many flights are taken per round?\"",\""True or false: The hidden values will change each time I start a new round.\"",\""How much does it cost to observe each hidden value?\"",\""How many hidden values am I allowed to observe in each round?\"",\""Which statement is TRUE?\""]"", ""correct"": [true, true, true, true, true], ""trial_index"": 25}"
A1HWB810RJBV2K:3SLE99ER0ND8GQ2BDGS8ZX1OJFXBZP,26,1487370977003,"{""rt"": [63944, 415, 3911], ""trial_type"": ""graph"", ""infoCost"": 0.05, ""minTime"": 45, ""actionTimes"": [63944, 64879, 69307], ""time_elapsed"": 1388887, ""actions"": [""right"", ""right"", ""up""], ""trialIndex"": 1, ""score"": 1.82, ""internal_node_id"": ""0.0-1.0-0.0"", ""clickTimes"": [7528, 9659, 11396, 13305, 17392, 21436, 24339, 31948, 33613, 35317, 39533, 41069, 45097, 47477, 48647, 49895], ""path"": [1, 2, 6, 10], ""trialID"": 8, ""clicks"": [""3"", ""7"", ""13"", ""12"", ""14"", ""8"", ""4"", ""2"", ""6"", ""11"", ""17"", ""9"", ""16"", ""5"", ""15"", ""10""], ""trial_index"": 26}"
A1HWB810RJBV2K:3SLE99ER0ND8GQ2BDGS8ZX1OJFXBZP,27,1487371026779,"{""rt"": [1620, 1233, 13065], ""trial_type"": ""graph"", ""infoCost"": 0.05, ""minTime"": 45, ""actionTimes"": [1620, 3357, 16942], ""time_elapsed"": 1438664, ""actions"": [""right"", ""right"", ""down""], ""trialIndex"": 2, ""score"": 1.12, ""internal_node_id"": ""0.0-1.0-1.0"", ""clickTimes"": [7035, 9153, 9939, 11738, 12650, 13793], ""path"": [1, 2, 6, 11], ""trialID"": 13, ""clicks"": [""2"", ""10"", ""11"", ""17"", ""1"", ""3""], ""trial_index"": 27}"
A1HWB810RJBV2K:3SLE99ER0ND8GQ2BDGS8ZX1OJFXBZP,28,1487371076957,"{""rt"": [11233, 353, 221], ""trial_type"": ""graph"", ""infoCost"": 0.05, ""minTime"": 45, ""actionTimes"": [11234, 12101, 12834], ""time_elapsed"": 1488842, ""actions"": [""up"", ""up"", ""left""], ""trialIndex"": 3, ""score"": 2.67, ""internal_node_id"": ""0.0-1.0-2.0"", ""clickTimes"": [4094, 5287, 7054, 7967], ""path"": [1, 3, 7, 12], ""trialID"": 15, ""clicks"": [""3"", ""7"", ""13"", ""12""], ""trial_index"": 28}"
A1HWB810RJBV2K:3SLE99ER0ND8GQ2BDGS8ZX1OJFXBZP,29,1487371137124,"{""rt"": [8860, 190, 142], ""trial_type"": ""graph"", ""infoCost"": 0.05, ""minTime"": 45, ""actionTimes"": [8860, 9568, 10216], ""time_elapsed"": 1549009, ""actions"": [""down"", ""down"", ""right""], ""trialIndex"": 4, ""score"": 2.52, ""internal_node_id"": ""0.0-1.0-3.0"", ""clickTimes"": [1819, 4284, 5186], ""path"": [1, 5, 9, 17], ""trialID"": 9, ""clicks"": [""5"", ""9"", ""17""], ""trial_index"": 29}"
A1HWB810RJBV2K:3SLE99ER0ND8GQ2BDGS8ZX1OJFXBZP,30,1487371185373,"{""rt"": [14005, 88, 128], ""trial_type"": ""graph"", ""infoCost"": 0.05, ""minTime"": 45, ""actionTimes"": [14005, 14624, 15262], ""time_elapsed"": 1597257, ""actions"": [""left"", ""left"", ""up""], ""trialIndex"": 5, ""score"": 1, ""internal_node_id"": ""0.0-1.0-4.0"", ""clickTimes"": [3917, 4974, 6229, 7812, 8973, 9670, 10278, 10701], ""path"": [1, 4, 8, 14], ""trialID"": 10, ""clicks"": [""11"", ""10"", ""13"", ""12"", ""14"", ""15"", ""16"", ""17""], ""trial_index"": 30}"
A1HWB810RJBV2K:3SLE99ER0ND8GQ2BDGS8ZX1OJFXBZP,31,1487371234843,"{""rt"": [8745, 296, 1661], ""trial_type"": ""graph"", ""infoCost"": 0.05, ""minTime"": 45, ""actionTimes"": [8745, 9550, 11715], ""time_elapsed"": 1646728, ""actions"": [""right"", ""right"", ""down""], ""trialIndex"": 6, ""score"": 5.08, ""internal_node_id"": ""0.0-1.0-5.0"", ""clickTimes"": [1173, 2588, 3423, 4454], ""path"": [1, 2, 6, 11], ""trialID"": 6, ""clicks"": [""12"", ""13"", ""10"", ""11""], ""trial_index"": 31}"
A1HWB810RJBV2K:3SLE99ER0ND8GQ2BDGS8ZX1OJFXBZP,32,1487371291439,"{""rt"": [6211, 383, 2566], ""trial_type"": ""graph"", ""infoCost"": 0.05, ""minTime"": 45, ""actionTimes"": [6211, 7099, 10181], ""time_elapsed"": 1703324, ""actions"": [""left"", ""left"", ""down""], ""trialIndex"": 7, ""score"": 3.02, ""internal_node_id"": ""0.0-1.0-6.0"", ""clickTimes"": [950, 2270], ""path"": [1, 4, 8, 15], ""trialID"": 17, ""clicks"": [""15"", ""14""], ""trial_index"": 32}"
A1HWB810RJBV2K:3SLE99ER0ND8GQ2BDGS8ZX1OJFXBZP,33,1487371339913,"{""rt"": [6174, 316, 1730], ""trial_type"": ""graph"", ""infoCost"": 0.05, ""minTime"": 45, ""actionTimes"": [6174, 6998, 9246], ""time_elapsed"": 1751798, ""actions"": [""left"", ""left"", ""down""], ""trialIndex"": 8, ""score"": 4.05, ""internal_node_id"": ""0.0-1.0-7.0"", ""clickTimes"": [639, 1456, 4000], ""path"": [1, 4, 8, 15], ""trialID"": 14, ""clicks"": [""14"", ""15"", ""16""], ""trial_index"": 33}"
A1HWB810RJBV2K:3SLE99ER0ND8GQ2BDGS8ZX1OJFXBZP,34,1487371389795,"{""rt"": [9230, 82, 250], ""trial_type"": ""graph"", ""infoCost"": 0.05, ""minTime"": 45, ""actionTimes"": [9230, 9826, 10593], ""time_elapsed"": 1801679, ""actions"": [""down"", ""down"", ""right""], ""trialIndex"": 9, ""score"": 4.31, ""internal_node_id"": ""0.0-1.0-8.0"", ""clickTimes"": [555, 1640, 2394, 3096, 4088, 4888, 5491, 6074], ""path"": [1, 5, 9, 17], ""trialID"": 1, ""clicks"": [""11"", ""10"", ""13"", ""12"", ""14"", ""15"", ""16"", ""17""], ""trial_index"": 34}"
A1HWB810RJBV2K:3SLE99ER0ND8GQ2BDGS8ZX1OJFXBZP,35,1487371442768,"{""rt"": [8375, 196, 1587], ""trial_type"": ""graph"", ""infoCost"": 0.05, ""minTime"": 45, ""actionTimes"": [8375, 9092, 11197], ""time_elapsed"": 1854653, ""actions"": [""right"", ""right"", ""down""], ""trialIndex"": 10, ""score"": 4.93, ""internal_node_id"": ""0.0-1.0-9.0"", ""clickTimes"": [726, 1412, 2389, 3468, 4094, 4790, 5334, 5792], ""path"": [1, 2, 6, 11], ""trialID"": 16, ""clicks"": [""17"", ""11"", ""10"", ""13"", ""12"", ""14"", ""15"", ""16""], ""trial_index"": 35}"
A1HWB810RJBV2K:3SLE99ER0ND8GQ2BDGS8ZX1OJFXBZP,36,1487371494824,"{""rt"": [8165, 304, 1863], ""trial_type"": ""graph"", ""infoCost"": 0.05, ""minTime"": 45, ""actionTimes"": [8166, 8987, 11361], ""time_elapsed"": 1906708, ""actions"": [""up"", ""up"", ""left""], ""trialIndex"": 11, ""score"": 3.81, ""internal_node_id"": ""0.0-1.0-10.0"", ""clickTimes"": [864, 1784, 2606, 3605], ""path"": [1, 3, 7, 12], ""trialID"": 3, ""clicks"": [""10"", ""11"", ""13"", ""12""], ""trial_index"": 36}"
A1HWB810RJBV2K:3SLE99ER0ND8GQ2BDGS8ZX1OJFXBZP,37,1487371542244,"{""rt"": [14422, 3, 1444], ""trial_type"": ""graph"", ""infoCost"": 0.05, ""minTime"": 45, ""actionTimes"": [14423, 14935, 16909], ""time_elapsed"": 1954129, ""actions"": [""down"", ""down"", ""right""], ""trialIndex"": 12, ""score"": 4.74, ""internal_node_id"": ""0.0-1.0-11.0"", ""clickTimes"": [1038, 1667, 2679, 3619, 6571, 12692], ""path"": [1, 5, 9, 17], ""trialID"": 7, ""clicks"": [""12"", ""13"", ""10"", ""11"", ""17"", ""16""], ""trial_index"": 37}"
A1HWB810RJBV2K:3SLE99ER0ND8GQ2BDGS8ZX1OJFXBZP,38,1487371595727,"{""rt"": [7055, 139, 1528], ""trial_type"": ""graph"", ""infoCost"": 0.05, ""minTime"": 45, ""actionTimes"": [7055, 7716, 9756], ""time_elapsed"": 2007611, ""actions"": [""up"", ""up"", ""left""], ""trialIndex"": 13, ""score"": 4.77, ""internal_node_id"": ""0.0-1.0-12.0"", ""clickTimes"": [1878, 2503, 3630, 4471, 5063], ""path"": [1, 3, 7, 12], ""trialID"": 5, ""clicks"": [""11"", ""17"", ""15"", ""14"", ""12""], ""trial_index"": 38}"
A1HWB810RJBV2K:3SLE99ER0ND8GQ2BDGS8ZX1OJFXBZP,39,1487371642912,"{""rt"": [8609, 397, 1031], ""trial_type"": ""graph"", ""infoCost"": 0.05, ""minTime"": 45, ""actionTimes"": [8609, 9507, 11043], ""time_elapsed"": 2054797, ""actions"": [""up"", ""up"", ""right""], ""trialIndex"": 14, ""score"": 0.62, ""internal_node_id"": ""0.0-1.0-13.0"", ""clickTimes"": [494, 1612, 2621, 3285, 3844, 4356, 4917, 5502], ""path"": [1, 3, 7, 13], ""trialID"": 18, ""clicks"": [""13"", ""12"", ""14"", ""15"", ""16"", ""17"", ""11"", ""10""], ""trial_index"": 39}"
A1HWB810RJBV2K:3SLE99ER0ND8GQ2BDGS8ZX1OJFXBZP,40,1487371701238,"{""rt"": [7553, 6597, 580], ""trial_type"": ""graph"", ""infoCost"": 0.05, ""minTime"": 45, ""actionTimes"": [7553, 14654, 15737], ""time_elapsed"": 2113122, ""actions"": [""down"", ""down"", ""right""], ""trialIndex"": 15, ""score"": 1.37, ""internal_node_id"": ""0.0-1.0-14.0"", ""clickTimes"": [1347, 2184, 2778, 3466, 4146, 4873, 5698], ""path"": [1, 5, 9, 17], ""trialID"": 0, ""clicks"": [""13"", ""11"", ""17"", ""16"", ""15"", ""14"", ""10""], ""trial_index"": 40}"
A1HWB810RJBV2K:3SLE99ER0ND8GQ2BDGS8ZX1OJFXBZP,41,1487371751619,"{""rt"": [11891, 322, 795], ""trial_type"": ""graph"", ""infoCost"": 0.05, ""minTime"": 45, ""actionTimes"": [11891, 12724, 14031], ""time_elapsed"": 2163504, ""actions"": [""left"", ""left"", ""down""], ""trialIndex"": 16, ""score"": 3.36, ""internal_node_id"": ""0.0-1.0-15.0"", ""clickTimes"": [2089, 3192, 4207, 4871, 5463, 6745, 7545, 8176], ""path"": [1, 4, 8, 15], ""trialID"": 11, ""clicks"": [""12"", ""13"", ""10"", ""11"", ""17"", ""16"", ""15"", ""14""], ""trial_index"": 41}"
A1HWB810RJBV2K:3SLE99ER0ND8GQ2BDGS8ZX1OJFXBZP,42,1487371803433,"{""rt"": [14331, 219, 645], ""trial_type"": ""graph"", ""infoCost"": 0.05, ""minTime"": 45, ""actionTimes"": [14332, 15054, 16228], ""time_elapsed"": 2215317, ""actions"": [""left"", ""left"", ""down""], ""trialIndex"": 17, ""score"": 6.66, ""internal_node_id"": ""0.0-1.0-16.0"", ""clickTimes"": [5260, 6283, 7224, 7856, 8391, 8931, 9728], ""path"": [1, 4, 8, 15], ""trialID"": 2, ""clicks"": [""13"", ""10"", ""11"", ""17"", ""16"", ""15"", ""14""], ""trial_index"": 42}"
A1HWB810RJBV2K:3SLE99ER0ND8GQ2BDGS8ZX1OJFXBZP,43,1487371851960,"{""rt"": [8414, 439, 702], ""trial_type"": ""graph"", ""infoCost"": 0.05, ""minTime"": 45, ""actionTimes"": [8414, 9365, 10579], ""time_elapsed"": 2263845, ""actions"": [""down"", ""down"", ""right""], ""trialIndex"": 18, ""score"": 5.11, ""internal_node_id"": ""0.0-1.0-17.0"", ""clickTimes"": [712, 1480, 2225, 2930, 3491, 4185, 5506, 6163], ""path"": [1, 5, 9, 17], ""trialID"": 19, ""clicks"": [""15"", ""11"", ""10"", ""12"", ""14"", ""13"", ""17"", ""16""], ""trial_index"": 43}"
A1HWB810RJBV2K:3SLE99ER0ND8GQ2BDGS8ZX1OJFXBZP,44,1487371950512,"{""rt"": [10478, 318, 491], ""trial_type"": ""graph"", ""infoCost"": 0.05, ""minTime"": 45, ""actionTimes"": [10478, 11306, 12310], ""time_elapsed"": 2362396, ""actions"": [""down"", ""down"", ""right""], ""trialIndex"": 19, ""score"": 1.75, ""internal_node_id"": ""0.0-1.0-18.0"", ""clickTimes"": [2904, 3558, 4087, 4590, 5510, 6221, 6810, 7291], ""path"": [1, 5, 9, 17], ""trialID"": 12, ""clicks"": [""12"", ""13"", ""10"", ""11"", ""17"", ""16"", ""15"", ""14""], ""trial_index"": 44}"
A1HWB810RJBV2K:3SLE99ER0ND8GQ2BDGS8ZX1OJFXBZP,45,1487372002236,"{""rt"": [8552, 180, 1085], ""trial_type"": ""graph"", ""infoCost"": 0.05, ""minTime"": 45, ""actionTimes"": [8552, 9247, 10854], ""time_elapsed"": 2414120, ""actions"": [""up"", ""up"", ""left""], ""trialIndex"": 20, ""score"": 4.08, ""internal_node_id"": ""0.0-1.0-19.0"", ""clickTimes"": [754, 1764, 2529, 3282, 4770, 5353, 6098, 6794], ""path"": [1, 3, 7, 12], ""trialID"": 4, ""clicks"": [""12"", ""13"", ""14"", ""15"", ""16"", ""17"", ""11"", ""10""], ""trial_index"": 45}"
A1HWB810RJBV2K:3SLE99ER0ND8GQ2BDGS8ZX1OJFXBZP,46,1487372009908,"{""rt"": 6642, ""trial_type"": ""button-response"", ""button_pressed"": 0, ""stimulus"": ""<h1 id=\""thiscompletesthehit\"">This completes the HIT</h1>\n\n<p>One or your profits was randomly selected as your bonus. You will be awarded a bonus of $3.02</p>"", ""internal_node_id"": ""0.0-2.0"", ""time_elapsed"": 2421793, ""trial_index"": 46}"
A1PTH9KTRO06EG:3NOKK93PR188CYNZRKGLFV6RY61EEM,0,1487369258873,"{""rt"": 67117, ""trial_type"": ""instructions"", ""view_history"": ""[{\""page_index\"":0,\""viewing_time\"":17114},{\""page_index\"":1,\""viewing_time\"":30091},{\""page_index\"":2,\""viewing_time\"":19911}]"", ""internal_node_id"": ""0.0-0.0-0.0"", ""time_elapsed"": 67119, ""trial_index"": 0}"
A1PTH9KTRO06EG:3NOKK93PR188CYNZRKGLFV6RY61EEM,1,1487369303743,"{""rt"": 43833, ""trial_type"": ""survey-multi-choice"", ""responses"": ""[\""3\"",\""True\"",\""$0.05\"",\""As many or as few as I wish\"",\""My earning for each round is equal to the <i>sum</i> of the values of all locations I visit (minus the cost of making observations), and I will be paid the earnings from one of the 20 rounds.\""]"", ""internal_node_id"": ""0.0-0.0-1.0"", ""time_elapsed"": 111989, ""questions"": ""[\""How many flights are taken per round?\"",\""True or false: The hidden values will change each time I start a new round.\"",\""How much does it cost to observe each hidden value?\"",\""How many hidden values am I allowed to observe in each round?\"",\""Which statement is TRUE?\""]"", ""correct"": [true, true, true, true, true], ""trial_index"": 1}"
A1PTH9KTRO06EG:3NOKK93PR188CYNZRKGLFV6RY61EEM,2,1487369390800,"{""rt"": [67368, 6011, 7586], ""trial_type"": ""graph"", ""infoCost"": 0.05, ""minTime"": 45, ""actionTimes"": [67369, 73893, 81971], ""time_elapsed"": 199045, ""actions"": [""down"", ""down"", ""right""], ""trialIndex"": 1, ""score"": 1.35, ""internal_node_id"": ""0.0-1.0-0.0"", ""clickTimes"": [7713, 10047, 12106, 12790, 15320, 16026, 16513, 27634, 28439, 29333, 35607, 37476, 38370, 39036, 40199, 40925], ""path"": [1, 5, 9, 17], ""trialID"": 12, ""clicks"": [""3"", ""4"", ""5"", ""2"", ""7"", ""12"", ""13"", ""8"", ""14"", ""15"", ""6"", ""9"", ""16"", ""17"", ""11"", ""10""], ""trial_index"": 2}"
A1PTH9KTRO06EG:3NOKK93PR188CYNZRKGLFV6RY61EEM,3,1487369438296,"{""rt"": [24194, 2441, 2826], ""trial_type"": ""graph"", ""infoCost"": 0.05, ""minTime"": 45, ""actionTimes"": [24194, 27135, 30467], ""time_elapsed"": 246541, ""actions"": [""right"", ""right"", ""up""], ""trialIndex"": 2, ""score"": 3.48, ""internal_node_id"": ""0.0-1.0-1.0"", ""clickTimes"": [2613, 3439, 4234, 5059, 6541, 7325, 8061, 9125, 9602, 10357, 11053, 11324, 11619, 12673, 12952, 13638], ""path"": [1, 2, 6, 10], ""trialID"": 18, ""clicks"": [""4"", ""2"", ""3"", ""5"", ""6"", ""10"", ""11"", ""8"", ""14"", ""15"", ""12"", ""7"", ""13"", ""9"", ""16"", ""17""], ""trial_index"": 3}"
A1PTH9KTRO06EG:3NOKK93PR188CYNZRKGLFV6RY61EEM,4,1487369485198,"{""rt"": [24685, 403, 1059], ""trial_type"": ""graph"", ""infoCost"": 0.05, ""minTime"": 45, ""actionTimes"": [24685, 25589, 27150], ""time_elapsed"": 293444, ""actions"": [""down"", ""down"", ""right""], ""trialIndex"": 3, ""score"": 4.24, ""internal_node_id"": ""0.0-1.0-2.0"", ""clickTimes"": [930, 1437, 2014, 2471, 3128, 3545, 3835, 4568, 4937, 5304, 6069, 6397, 6893, 7521, 7819, 8226], ""path"": [1, 5, 9, 17], ""trialID"": 7, ""clicks"": [""2"", ""5"", ""4"", ""3"", ""13"", ""7"", ""12"", ""14"", ""8"", ""15"", ""11"", ""6"", ""10"", ""17"", ""9"", ""16""], ""trial_index"": 4}"
A1PTH9KTRO06EG:3NOKK93PR188CYNZRKGLFV6RY61EEM,5,1487369539797,"{""rt"": [46803, 786, 2434], ""trial_type"": ""graph"", ""infoCost"": 0.05, ""minTime"": 45, ""actionTimes"": [46803, 48105, 51044], ""time_elapsed"": 348042, ""actions"": [""down"", ""down"", ""left""], ""trialIndex"": 4, ""score"": 3.23, ""internal_node_id"": ""0.0-1.0-3.0"", ""clickTimes"": [721, 1278, 1834, 2321, 2839, 3624, 4358, 5085, 5344, 5622, 6318, 6685, 7291, 8018, 8693, 9261], ""path"": [1, 5, 9, 16], ""trialID"": 11, ""clicks"": [""5"", ""2"", ""3"", ""4"", ""8"", ""14"", ""15"", ""12"", ""7"", ""13"", ""10"", ""6"", ""11"", ""17"", ""16"", ""9""], ""trial_index"": 5}"
A1PTH9KTRO06EG:3NOKK93PR188CYNZRKGLFV6RY61EEM,6,1487369586701,"{""rt"": [16346, 282, 1928], ""trial_type"": ""graph"", ""infoCost"": 0.05, ""minTime"": 45, ""actionTimes"": [16346, 17132, 19565], ""time_elapsed"": 394947, ""actions"": [""up"", ""up"", ""right""], ""trialIndex"": 5, ""score"": 2.94, ""internal_node_id"": ""0.0-1.0-4.0"", ""clickTimes"": [651, 960, 1417, 2291, 2818, 3116, 3663, 4200, 4458, 4776, 5561, 5969, 6834, 7560, 7878, 8625], ""path"": [1, 3, 7, 13], ""trialID"": 10, ""clicks"": [""5"", ""2"", ""3"", ""4"", ""8"", ""15"", ""14"", ""12"", ""7"", ""13"", ""10"", ""6"", ""11"", ""17"", ""9"", ""16""], ""trial_index"": 6}"
A1PTH9KTRO06EG:3NOKK93PR188CYNZRKGLFV6RY61EEM,7,1487369634033,"{""rt"": [15691, 116, 731], ""trial_type"": ""graph"", ""infoCost"": 0.05, ""minTime"": 45, ""actionTimes"": [15691, 16316, 17552], ""time_elapsed"": 442279, ""actions"": [""down"", ""down"", ""right""], ""trialIndex"": 6, ""score"": 3.91, ""internal_node_id"": ""0.0-1.0-5.0"", ""clickTimes"": [784, 1302, 1583, 2038, 3141, 3489, 3986, 4672, 5616, 5924, 6848, 7555, 8230, 8598, 9066, 9591], ""path"": [1, 5, 9, 17], ""trialID"": 1, ""clicks"": [""3"", ""7"", ""13"", ""12"", ""2"", ""6"", ""10"", ""11"", ""17"", ""9"", ""5"", ""16"", ""15"", ""8"", ""4"", ""14""], ""trial_index"": 7}"
A1PTH9KTRO06EG:3NOKK93PR188CYNZRKGLFV6RY61EEM,8,1487369680648,"{""rt"": [15571, 949, 1531], ""trial_type"": ""graph"", ""infoCost"": 0.05, ""minTime"": 45, ""actionTimes"": [15571, 17021, 19062], ""time_elapsed"": 488893, ""actions"": [""up"", ""up"", ""right""], ""trialIndex"": 7, ""score"": 3.22, ""internal_node_id"": ""0.0-1.0-6.0"", ""clickTimes"": [722, 1132, 1885, 2263, 3166, 3546, 4072, 5026, 5405, 5812, 6676, 7352, 7958, 9141, 9678, 10205], ""path"": [1, 3, 7, 13], ""trialID"": 9, ""clicks"": [""2"", ""3"", ""4"", ""5"", ""14"", ""8"", ""15"", ""10"", ""6"", ""11"", ""13"", ""7"", ""12"", ""9"", ""16"", ""17""], ""trial_index"": 8}"
A1PTH9KTRO06EG:3NOKK93PR188CYNZRKGLFV6RY61EEM,9,1487369728130,"{""rt"": [22659, 348, 2442], ""trial_type"": ""graph"", ""infoCost"": 0.05, ""minTime"": 45, ""actionTimes"": [22659, 23518, 26468], ""time_elapsed"": 536376, ""actions"": [""up"", ""up"", ""left""], ""trialIndex"": 8, ""score"": 3.68, ""internal_node_id"": ""0.0-1.0-7.0"", ""clickTimes"": [635, 1032, 1588, 1980, 2682, 3131, 3825, 5257, 5555, 5932, 7026, 7482, 8039, 9014, 9321, 9939], ""path"": [1, 3, 7, 12], ""trialID"": 4, ""clicks"": [""3"", ""2"", ""4"", ""5"", ""14"", ""8"", ""15"", ""16"", ""9"", ""17"", ""11"", ""6"", ""10"", ""13"", ""7"", ""12""], ""trial_index"": 9}"
A1PTH9KTRO06EG:3NOKK93PR188CYNZRKGLFV6RY61EEM,10,1487369775244,"{""rt"": [23650, 560, 1345], ""trial_type"": ""graph"", ""infoCost"": 0.05, ""minTime"": 45, ""actionTimes"": [23650, 24717, 26558], ""time_elapsed"": 583489, ""actions"": [""up"", ""up"", ""right""], ""trialIndex"": 9, ""score"": 3.51, ""internal_node_id"": ""0.0-1.0-8.0"", ""clickTimes"": [667, 1104, 1840, 2327, 2972, 3350, 3937, 4852, 5219, 5557, 6402, 6930, 8103, 9028, 9632, 10408], ""path"": [1, 3, 7, 13], ""trialID"": 13, ""clicks"": [""3"", ""2"", ""4"", ""5"", ""8"", ""14"", ""15"", ""16"", ""9"", ""17"", ""11"", ""6"", ""10"", ""13"", ""7"", ""12""], ""trial_index"": 10}"
A1PTH9KTRO06EG:3NOKK93PR188CYNZRKGLFV6RY61EEM,11,1487369821852,"{""rt"": [14698, 138, 1271], ""trial_type"": ""graph"", ""infoCost"": 0.05, ""minTime"": 45, ""actionTimes"": [14698, 15344, 17114], ""time_elapsed"": 630098, ""actions"": [""down"", ""down"", ""right""], ""trialIndex"": 10, ""score"": 4.71, ""internal_node_id"": ""0.0-1.0-9.0"", ""clickTimes"": [1407, 1904, 2283, 2809, 3742, 4270, 4587, 5153, 5908, 6574, 7022, 7797, 8563, 9061, 9468, 10173], ""path"": [1, 5, 9, 17], ""trialID"": 19, ""clicks"": [""2"", ""6"", ""10"", ""11"", ""3"", ""7"", ""13"", ""12"", ""4"", ""8"", ""14"", ""15"", ""5"", ""9"", ""16"", ""17""], ""trial_index"": 11}"
A1PTH9KTRO06EG:3NOKK93PR188CYNZRKGLFV6RY61EEM,12,1487369868255,"{""rt"": [14298, 243, 263], ""trial_type"": ""graph"", ""infoCost"": 0.05, ""minTime"": 45, ""actionTimes"": [14298, 15044, 15801], ""time_elapsed"": 676501, ""actions"": [""right"", ""right"", ""up""], ""trialIndex"": 11, ""score"": 1.82, ""internal_node_id"": ""0.0-1.0-10.0"", ""clickTimes"": [1353, 1898, 2355, 2903, 3739, 4224, 4553, 5120, 5855, 6262, 6649, 7266, 8111, 8539, 9136, 9840], ""path"": [1, 2, 6, 10], ""trialID"": 8, ""clicks"": [""3"", ""7"", ""13"", ""12"", ""4"", ""8"", ""14"", ""15"", ""2"", ""6"", ""10"", ""11"", ""5"", ""9"", ""16"", ""17""], ""trial_index"": 12}"
A1PTH9KTRO06EG:3NOKK93PR188CYNZRKGLFV6RY61EEM,13,1487369916885,"{""rt"": [17985, 200, 620], ""trial_type"": ""graph"", ""infoCost"": 0.05, ""minTime"": 45, ""actionTimes"": [17985, 18694, 19818], ""time_elapsed"": 725130, ""actions"": [""up"", ""up"", ""left""], ""trialIndex"": 12, ""score"": 3.21, ""internal_node_id"": ""0.0-1.0-11.0"", ""clickTimes"": [865, 1241, 1709, 2435, 3349, 3895, 4652, 5177, 5923, 6203, 6599, 7325, 8448, 9035, 9670, 10336], ""path"": [1, 3, 7, 12], ""trialID"": 3, ""clicks"": [""7"", ""3"", ""13"", ""12"", ""4"", ""8"", ""14"", ""15"", ""2"", ""6"", ""10"", ""11"", ""5"", ""9"", ""17"", ""16""], ""trial_index"": 13}"
A1PTH9KTRO06EG:3NOKK93PR188CYNZRKGLFV6RY61EEM,14,1487369963675,"{""rt"": [13164, 252, 1809], ""trial_type"": ""graph"", ""infoCost"": 0.05, ""minTime"": 45, ""actionTimes"": [13164, 13913, 16222], ""time_elapsed"": 771921, ""actions"": [""right"", ""right"", ""down""], ""trialIndex"": 13, ""score"": 4.48, ""internal_node_id"": ""0.0-1.0-12.0"", ""clickTimes"": [700, 1167, 1635, 2092, 2630, 2997, 3355, 3911, 4826, 5234, 5572, 6079, 6705, 6993, 7431, 8037], ""path"": [1, 2, 6, 11], ""trialID"": 6, ""clicks"": [""3"", ""7"", ""13"", ""12"", ""2"", ""6"", ""10"", ""11"", ""17"", ""9"", ""5"", ""16"", ""4"", ""8"", ""14"", ""15""], ""trial_index"": 14}"
A1PTH9KTRO06EG:3NOKK93PR188CYNZRKGLFV6RY61EEM,15,1487370010634,"{""rt"": [21952, 153, 658], ""trial_type"": ""graph"", ""infoCost"": 0.05, ""minTime"": 45, ""actionTimes"": [21953, 22616, 23775], ""time_elapsed"": 818880, ""actions"": [""right"", ""right"", ""down""], ""trialIndex"": 14, ""score"": 3.32, ""internal_node_id"": ""0.0-1.0-13.0"", ""clickTimes"": [404, 853, 1587, 2045, 2671, 2929, 3287, 3843, 5334, 5761, 6090, 6984, 7660, 8058, 8874, 9529], ""path"": [1, 2, 6, 11], ""trialID"": 17, ""clicks"": [""3"", ""7"", ""13"", ""12"", ""2"", ""6"", ""10"", ""11"", ""5"", ""9"", ""17"", ""16"", ""4"", ""8"", ""14"", ""15""], ""trial_index"": 15}"
A1PTH9KTRO06EG:3NOKK93PR188CYNZRKGLFV6RY61EEM,16,1487370057424,"{""rt"": [13442, 201, 730], ""trial_type"": ""graph"", ""infoCost"": 0.05, ""minTime"": 45, ""actionTimes"": [13442, 14152, 15385], ""time_elapsed"": 865669, ""actions"": [""left"", ""left"", ""down""], ""trialIndex"": 15, ""score"": 6.21, ""internal_node_id"": ""0.0-1.0-14.0"", ""clickTimes"": [736, 1223, 1520, 1907, 2463, 3378, 3875, 4571, 6559, 6966, 7354, 7961, 9064, 9640, 10007, 10625], ""path"": [1, 4, 8, 15], ""trialID"": 2, ""clicks"": [""3"", ""7"", ""13"", ""12"", ""2"", ""6"", ""10"", ""11"", ""4"", ""8"", ""14"", ""15"", ""5"", ""9"", ""17"", ""16""], ""trial_index"": 16}"
A1PTH9KTRO06EG:3NOKK93PR188CYNZRKGLFV6RY61EEM,17,1487370105082,"{""rt"": [19439, 226, 836], ""trial_type"": ""graph"", ""infoCost"": 0.05, ""minTime"": 45, ""actionTimes"": [19440, 20162, 21492], ""time_elapsed"": 913327, ""actions"": [""left"", ""left"", ""down""], ""trialIndex"": 16, ""score"": 3.4, ""internal_node_id"": ""0.0-1.0-15.0"", ""clickTimes"": [1245, 1683, 2100, 2547, 3959, 4216, 4604, 5260, 6145, 6713, 7179, 7805, 8513, 8968, 9525, 9972], ""path"": [1, 4, 8, 15], ""trialID"": 14, ""clicks"": [""3"", ""7"", ""13"", ""12"", ""2"", ""6"", ""10"", ""11"", ""4"", ""8"", ""14"", ""15"", ""5"", ""9"", ""16"", ""17""], ""trial_index"": 17}"
A1PTH9KTRO06EG:3NOKK93PR188CYNZRKGLFV6RY61EEM,18,1487370153758,"{""rt"": [30865, 139, 1286], ""trial_type"": ""graph"", ""infoCost"": 0.05, ""minTime"": 45, ""actionTimes"": [30865, 31505, 33288], ""time_elapsed"": 962004, ""actions"": [""left"", ""left"", ""down""], ""trialIndex"": 17, ""score"": 3.57, ""internal_node_id"": ""0.0-1.0-16.0"", ""clickTimes"": [1575, 1930, 2278, 2755, 3569, 4009, 4385, 4932, 6006, 6433, 6741, 7347, 8521, 8918, 9226, 9713], ""path"": [1, 4, 8, 15], ""trialID"": 15, ""clicks"": [""3"", ""7"", ""13"", ""12"", ""2"", ""6"", ""10"", ""11"", ""4"", ""8"", ""14"", ""15"", ""5"", ""9"", ""17"", ""16""], ""trial_index"": 18}"
A1PTH9KTRO06EG:3NOKK93PR188CYNZRKGLFV6RY61EEM,19,1487370207067,"{""rt"": [48387, 126, 850], ""trial_type"": ""graph"", ""infoCost"": 0.05, ""minTime"": 45, ""actionTimes"": [48388, 49022, 50366], ""time_elapsed"": 1015312, ""actions"": [""up"", ""up"", ""left""], ""trialIndex"": 18, ""score"": 4.07, ""internal_node_id"": ""0.0-1.0-17.0"", ""clickTimes"": [516, 874, 1560, 2416, 3200, 3548, 3945, 4760, 6530, 6917, 7315, 7881, 8747, 9214, 9790, 10387], ""path"": [1, 3, 7, 12], ""trialID"": 0, ""clicks"": [""3"", ""7"", ""13"", ""12"", ""4"", ""8"", ""14"", ""15"", ""2"", ""6"", ""10"", ""11"", ""5"", ""9"", ""17"", ""16""], ""trial_index"": 19}"
A1PTH9KTRO06EG:3NOKK93PR188CYNZRKGLFV6RY61EEM,20,1487370277095,"{""rt"": [13693, 170, 185], ""trial_type"": ""graph"", ""infoCost"": 0.05, ""minTime"": 45, ""actionTimes"": [13693, 14369, 15055], ""time_elapsed"": 1085341, ""actions"": [""right"", ""right"", ""down""], ""trialIndex"": 19, ""score"": 4.53, ""internal_node_id"": ""0.0-1.0-18.0"", ""clickTimes"": [366, 754, 1121, 1598, 2354, 2830, 3248, 3895, 4908, 5356, 5703, 6409, 6976, 7473, 7880, 8486], ""path"": [1, 2, 6, 11], ""trialID"": 16, ""clicks"": [""3"", ""7"", ""13"", ""12"", ""2"", ""6"", ""10"", ""11"", ""5"", ""9"", ""17"", ""16"", ""4"", ""8"", ""14"", ""15""], ""trial_index"": 20}"
A1PTH9KTRO06EG:3NOKK93PR188CYNZRKGLFV6RY61EEM,21,1487370323817,"{""rt"": [19411, 720, 966], ""trial_type"": ""graph"", ""infoCost"": 0.05, ""minTime"": 45, ""actionTimes"": [19412, 20637, 22106], ""time_elapsed"": 1132063, ""actions"": [""up"", ""up"", ""left""], ""trialIndex"": 20, ""score"": 4.22, ""internal_node_id"": ""0.0-1.0-19.0"", ""clickTimes"": [1318, 2052, 2360, 3056, 3703, 4288, 4637, 5143, 5851, 6328, 6693, 7231, 8234, 8672, 9010, 9586], ""path"": [1, 3, 7, 12], ""trialID"": 5, ""clicks"": [""3"", ""7"", ""13"", ""12"", ""2"", ""6"", ""10"", ""11"", ""4"", ""8"", ""14"", ""15"", ""5"", ""9"", ""17"", ""16""], ""trial_index"": 21}"
A1PTH9KTRO06EG:3NOKK93PR188CYNZRKGLFV6RY61EEM,22,1487370329698,"{""rt"": 4864, ""trial_type"": ""button-response"", ""button_pressed"": 0, ""stimulus"": ""<h1 id=\""thiscompletesthehit\"">This completes the HIT</h1>\n\n<p>One or your profits was randomly selected as your bonus. You will be awarded a bonus of $3.22</p>"", ""internal_node_id"": ""0.0-2.0"", ""time_elapsed"": 1137944, ""trial_index"": 22}"
A1YVMDRR9W1LZ1:3XUHV3NRVKYK0PL86KVOW4XRDTUH54,0,1487369603450,"{""rt"": 444083, ""trial_type"": ""instructions"", ""view_history"": ""[{\""page_index\"":0,\""viewing_time\"":80888},{\""page_index\"":1,\""viewing_time\"":342424},{\""page_index\"":2,\""viewing_time\"":20771}]"", ""internal_node_id"": ""0.0-0.0-0.0"", ""time_elapsed"": 444085, ""trial_index"": 0}"
A1YVMDRR9W1LZ1:3XUHV3NRVKYK0PL86KVOW4XRDTUH54,1,1487369655972,"{""rt"": 47775, ""trial_type"": ""survey-multi-choice"", ""responses"": ""[\""1\"",\""True\"",\""$0.05\"",\""As many or as few as I wish\"",\""My earning for each round is equal to the <i>sum</i> of the values of all locations I visit (minus the cost of making observations), and I will be paid the earnings from one of the 20 rounds.\""]"", ""internal_node_id"": ""0.0-0.0-1.0"", ""time_elapsed"": 496607, ""questions"": ""[\""How many flights are taken per round?\"",\""True or false: The hidden values will change each time I start a new round.\"",\""How much does it cost to observe each hidden value?\"",\""How many hidden values am I allowed to observe in each round?\"",\""Which statement is TRUE?\""]"", ""correct"": [false, true, true, true, true], ""trial_index"": 1}"
A1YVMDRR9W1LZ1:3XUHV3NRVKYK0PL86KVOW4XRDTUH54,2,1487369744022,"{""rt"": 87043, ""trial_type"": ""instructions"", ""view_history"": ""[{\""page_index\"":0,\""viewing_time\"":2279},{\""page_index\"":1,\""viewing_time\"":11545},{\""page_index\"":0,\""viewing_time\"":41952},{\""page_index\"":1,\""viewing_time\"":24171},{\""page_index\"":2,\""viewing_time\"":7095}]"", ""internal_node_id"": ""0.0-0.1-0.1"", ""time_elapsed"": 584657, ""trial_index"": 2}"
A1YVMDRR9W1LZ1:3XUHV3NRVKYK0PL86KVOW4XRDTUH54,3,1487369782118,"{""rt"": 25841, ""trial_type"": ""survey-multi-choice"", ""responses"": ""[\""2\"",\""True\"",\""$0.05\"",\""As many or as few as I wish\"",\""My earning for each round is equal to the <i>sum</i> of the values of all locations I visit (minus the cost of making observations), and I will be paid the earnings from one of the 20 rounds.\""]"", ""internal_node_id"": ""0.0-0.1-1.1"", ""time_elapsed"": 622752, ""questions"": ""[\""How many flights are taken per round?\"",\""True or false: The hidden values will change each time I start a new round.\"",\""How much does it cost to observe each hidden value?\"",\""How many hidden values am I allowed to observe in each round?\"",\""Which statement is TRUE?\""]"", ""correct"": [false, true, true, true, true], ""trial_index"": 3}"
A1YVMDRR9W1LZ1:3XUHV3NRVKYK0PL86KVOW4XRDTUH54,4,1487369863733,"{""rt"": 80614, ""trial_type"": ""instructions"", ""view_history"": ""[{\""page_index\"":0,\""viewing_time\"":38381},{\""page_index\"":1,\""viewing_time\"":27839},{\""page_index\"":2,\""viewing_time\"":14393}]"", ""internal_node_id"": ""0.0-0.2-0.2"", ""time_elapsed"": 704368, ""trial_index"": 4}"
A1YVMDRR9W1LZ1:3XUHV3NRVKYK0PL86KVOW4XRDTUH54,5,1487369940046,"{""rt"": 75285, ""trial_type"": ""survey-multi-choice"", ""responses"": ""[\""3\"",\""True\"",\""$0.05\"",\""As many or as few as I wish\"",\""My earning for each round is equal to the <i>sum</i> of the values of all locations I visit (minus the cost of making observations), and I will be paid the earnings from one of the 20 rounds.\""]"", ""internal_node_id"": ""0.0-0.2-1.2"", ""time_elapsed"": 780681, ""questions"": ""[\""How many flights are taken per round?\"",\""True or false: The hidden values will change each time I start a new round.\"",\""How much does it cost to observe each hidden value?\"",\""How many hidden values am I allowed to observe in each round?\"",\""Which statement is TRUE?\""]"", ""correct"": [true, true, true, true, true], ""trial_index"": 5}"
A1YVMDRR9W1LZ1:3XUHV3NRVKYK0PL86KVOW4XRDTUH54,6,1487370007959,"{""rt"": [62135, 498, 363], ""trial_type"": ""graph"", ""infoCost"": 0.05, ""minTime"": 45, ""actionTimes"": [62135, 63151, 64015], ""time_elapsed"": 848594, ""actions"": [""down"", ""down"", ""right""], ""trialIndex"": 1, ""score"": 3.91, ""internal_node_id"": ""0.0-1.0-0.0"", ""clickTimes"": [5459, 6294, 6921, 7487, 9122, 10747, 11499, 15185, 21989, 22764, 25447, 26424, 26943, 36326, 37044, 37608], ""path"": [1, 5, 9, 17], ""trialID"": 1, ""clicks"": [""2"", ""3"", ""4"", ""5"", ""8"", ""15"", ""14"", ""6"", ""10"", ""11"", ""9"", ""16"", ""17"", ""7"", ""13"", ""12""], ""trial_index"": 6}"
A1YVMDRR9W1LZ1:3XUHV3NRVKYK0PL86KVOW4XRDTUH54,7,1487370055741,"{""rt"": [12664, 202, 209], ""trial_type"": ""graph"", ""infoCost"": 0.05, ""minTime"": 45, ""actionTimes"": [12664, 13368, 14091], ""time_elapsed"": 896376, ""actions"": [""right"", ""right"", ""down""], ""trialIndex"": 2, ""score"": 3.8, ""internal_node_id"": ""0.0-1.0-1.0"", ""clickTimes"": [1778, 2413, 3168, 3660, 5466, 6222, 6820], ""path"": [1, 2, 6, 11], ""trialID"": 15, ""clicks"": [""3"", ""4"", ""2"", ""5"", ""6"", ""10"", ""11""], ""trial_index"": 7}"
A1YVMDRR9W1LZ1:3XUHV3NRVKYK0PL86KVOW4XRDTUH54,8,1487370117935,"{""rt"": [57894, 32, 114], ""trial_type"": ""graph"", ""infoCost"": 0.05, ""minTime"": 45, ""actionTimes"": [57894, 58417, 59048], ""time_elapsed"": 958570, ""actions"": [""left"", ""left"", ""down""], ""trialIndex"": 3, ""score"": 3.4, ""internal_node_id"": ""0.0-1.0-2.0"", ""clickTimes"": [980, 1460, 2024, 2594, 3912, 4539, 5093, 6727, 7063, 7542, 15481, 16239, 17428, 18019, 19013, 19530], ""path"": [1, 4, 8, 15], ""trialID"": 14, ""clicks"": [""3"", ""4"", ""5"", ""2"", ""6"", ""10"", ""11"", ""8"", ""14"", ""15"", ""7"", ""9"", ""16"", ""17"", ""13"", ""12""], ""trial_index"": 8}"
A1YVMDRR9W1LZ1:3XUHV3NRVKYK0PL86KVOW4XRDTUH54,9,1487370169774,"{""rt"": [13473, 132, 133], ""trial_type"": ""graph"", ""infoCost"": 0.05, ""minTime"": 45, ""actionTimes"": [13473, 14107, 14741], ""time_elapsed"": 1010409, ""actions"": [""up"", ""up"", ""left""], ""trialIndex"": 4, ""score"": 4.52, ""internal_node_id"": ""0.0-1.0-3.0"", ""clickTimes"": [1030, 1584, 2427, 2927, 3732, 4187, 4735, 5921, 6533, 7084], ""path"": [1, 3, 7, 12], ""trialID"": 5, ""clicks"": [""3"", ""4"", ""2"", ""5"", ""6"", ""11"", ""10"", ""7"", ""13"", ""12""], ""trial_index"": 9}"
A1YVMDRR9W1LZ1:3XUHV3NRVKYK0PL86KVOW4XRDTUH54,10,1487370226166,"{""rt"": [36268, 132, 188], ""trial_type"": ""graph"", ""infoCost"": 0.05, ""minTime"": 45, ""actionTimes"": [36268, 36910, 37597], ""time_elapsed"": 1066801, ""actions"": [""up"", ""up"", ""left""], ""trialIndex"": 5, ""score"": 3.21, ""internal_node_id"": ""0.0-1.0-4.0"", ""clickTimes"": [1902, 2802, 3382, 3877, 5506, 6016, 6629, 11855, 12398, 13019, 14187, 14725, 15376, 16841, 17269, 17827], ""path"": [1, 3, 7, 12], ""trialID"": 3, ""clicks"": [""3"", ""4"", ""5"", ""2"", ""6"", ""11"", ""10"", ""8"", ""14"", ""15"", ""9"", ""16"", ""17"", ""7"", ""12"", ""13""], ""trial_index"": 10}"
A1YVMDRR9W1LZ1:3XUHV3NRVKYK0PL86KVOW4XRDTUH54,11,1487370294012,"{""rt"": [63466, 177, 305], ""trial_type"": ""graph"", ""infoCost"": 0.05, ""minTime"": 45, ""actionTimes"": [63467, 64151, 64945], ""time_elapsed"": 1134647, ""actions"": [""right"", ""right"", ""down""], ""trialIndex"": 6, ""score"": 3.32, ""internal_node_id"": ""0.0-1.0-5.0"", ""clickTimes"": [659, 1548, 2859, 3400, 4990, 5668, 6383, 8907, 9431, 10714, 12406, 13775, 14759, 15406, 17887, 18665], ""path"": [1, 2, 6, 11], ""trialID"": 17, ""clicks"": [""3"", ""4"", ""5"", ""2"", ""8"", ""14"", ""15"", ""7"", ""12"", ""13"", ""6"", ""9"", ""17"", ""11"", ""16"", ""10""], ""trial_index"": 11}"
A1YVMDRR9W1LZ1:3XUHV3NRVKYK0PL86KVOW4XRDTUH54,12,1487370344331,"{""rt"": [10470, 185, 137], ""trial_type"": ""graph"", ""infoCost"": 0.05, ""minTime"": 45, ""actionTimes"": [10470, 11163, 11798], ""time_elapsed"": 1184965, ""actions"": [""left"", ""left"", ""down""], ""trialIndex"": 7, ""score"": 6.51, ""internal_node_id"": ""0.0-1.0-6.0"", ""clickTimes"": [1102, 1637, 2195, 2728, 3649, 4284, 5031, 5895, 6607, 7226], ""path"": [1, 4, 8, 15], ""trialID"": 2, ""clicks"": [""3"", ""4"", ""5"", ""2"", ""6"", ""10"", ""11"", ""8"", ""14"", ""15""], ""trial_index"": 12}"
A1YVMDRR9W1LZ1:3XUHV3NRVKYK0PL86KVOW4XRDTUH54,13,1487370391598,"{""rt"": [40112, 64, 132], ""trial_type"": ""graph"", ""infoCost"": 0.05, ""minTime"": 45, ""actionTimes"": [40112, 40686, 41303], ""time_elapsed"": 1232233, ""actions"": [""right"", ""right"", ""up""], ""trialIndex"": 8, ""score"": 1.82, ""internal_node_id"": ""0.0-1.0-7.0"", ""clickTimes"": [2805, 3624, 4148, 4597, 6084, 6989, 7503, 8460, 8957, 9443, 10491, 10937, 11969, 13478, 13979, 14747], ""path"": [1, 2, 6, 10], ""trialID"": 8, ""clicks"": [""3"", ""4"", ""5"", ""2"", ""8"", ""14"", ""15"", ""9"", ""16"", ""17"", ""6"", ""11"", ""10"", ""7"", ""13"", ""12""], ""trial_index"": 13}"
A1YVMDRR9W1LZ1:3XUHV3NRVKYK0PL86KVOW4XRDTUH54,14,1487370438860,"{""rt"": [32993, 85, 109], ""trial_type"": ""graph"", ""infoCost"": 0.05, ""minTime"": 45, ""actionTimes"": [32993, 33579, 34189], ""time_elapsed"": 1279495, ""actions"": [""up"", ""up"", ""left""], ""trialIndex"": 9, ""score"": 4.07, ""internal_node_id"": ""0.0-1.0-8.0"", ""clickTimes"": [1499, 2107, 2795, 3526, 4505, 5149, 6041, 7971, 8575, 9219, 14731, 15687, 16220, 17633, 18524, 20830], ""path"": [1, 3, 7, 12], ""trialID"": 0, ""clicks"": [""3"", ""4"", ""5"", ""2"", ""8"", ""15"", ""14"", ""6"", ""11"", ""10"", ""9"", ""16"", ""17"", ""7"", ""12"", ""13""], ""trial_index"": 14}"
A1YVMDRR9W1LZ1:3XUHV3NRVKYK0PL86KVOW4XRDTUH54,15,1487370492551,"{""rt"": [20209, 11, 30], ""trial_type"": ""graph"", ""infoCost"": 0.05, ""minTime"": 45, ""actionTimes"": [20209, 20709, 21261], ""time_elapsed"": 1333186, ""actions"": [""down"", ""down"", ""right""], ""trialIndex"": 10, ""score"": 4.71, ""internal_node_id"": ""0.0-1.0-9.0"", ""clickTimes"": [1186, 1798, 2461, 3036, 4192, 5813, 6649, 8097, 8647, 12907, 13570, 15347, 16004, 17046, 17669, 18222], ""path"": [1, 5, 9, 17], ""trialID"": 19, ""clicks"": [""3"", ""4"", ""5"", ""2"", ""8"", ""6"", ""9"", ""16"", ""17"", ""14"", ""15"", ""11"", ""10"", ""7"", ""12"", ""13""], ""trial_index"": 15}"
A1YVMDRR9W1LZ1:3XUHV3NRVKYK0PL86KVOW4XRDTUH54,16,1487370552755,"{""rt"": [32435, 20, 1], ""trial_type"": ""graph"", ""infoCost"": 0.05, ""minTime"": 45, ""actionTimes"": [32435, 32965, 33479], ""time_elapsed"": 1393389, ""actions"": [""right"", ""right"", ""down""], ""trialIndex"": 11, ""score"": 4.43, ""internal_node_id"": ""0.0-1.0-10.0"", ""clickTimes"": [16847, 16889, 18439, 19122, 19598, 20829, 21504, 22097, 23988, 24381, 24837, 25750, 26265, 26938, 27842, 28406, 28957], ""path"": [1, 2, 6, 11], ""trialID"": 6, ""clicks"": [""3"", ""3"", ""4"", ""5"", ""2"", ""8"", ""14"", ""15"", ""9"", ""16"", ""17"", ""6"", ""11"", ""10"", ""7"", ""13"", ""12""], ""trial_index"": 16}"
A1YVMDRR9W1LZ1:3XUHV3NRVKYK0PL86KVOW4XRDTUH54,17,1487370599867,"{""rt"": [24189, 102, 71], ""trial_type"": ""graph"", ""infoCost"": 0.05, ""minTime"": 45, ""actionTimes"": [24189, 24808, 25393], ""time_elapsed"": 1440501, ""actions"": [""up"", ""up"", ""right""], ""trialIndex"": 12, ""score"": 3.51, ""internal_node_id"": ""0.0-1.0-11.0"", ""clickTimes"": [382, 1166, 1872, 2511, 3522, 4303, 5086, 5660, 6540, 6987, 7511, 9227, 9642, 10479, 12129, 12646], ""path"": [1, 3, 7, 13], ""trialID"": 13, ""clicks"": [""3"", ""4"", ""5"", ""2"", ""9"", ""8"", ""15"", ""14"", ""7"", ""12"", ""13"", ""6"", ""10"", ""11"", ""17"", ""16""], ""trial_index"": 17}"
A1YVMDRR9W1LZ1:3XUHV3NRVKYK0PL86KVOW4XRDTUH54,18,1487370652022,"{""rt"": [28592, 77, 57], ""trial_type"": ""graph"", ""infoCost"": 0.05, ""minTime"": 45, ""actionTimes"": [28592, 29161, 29708], ""time_elapsed"": 1492656, ""actions"": [""down"", ""down"", ""right""], ""trialIndex"": 13, ""score"": 3.88, ""internal_node_id"": ""0.0-1.0-12.0"", ""clickTimes"": [858, 1309, 1640, 2051, 2750, 3361, 3962, 4949, 5423, 5939, 7358, 7904, 8460, 9221, 9643, 10080], ""path"": [1, 5, 9, 17], ""trialID"": 18, ""clicks"": [""3"", ""4"", ""5"", ""2"", ""6"", ""10"", ""11"", ""9"", ""16"", ""17"", ""8"", ""15"", ""14"", ""7"", ""12"", ""13""], ""trial_index"": 18}"
A1YVMDRR9W1LZ1:3XUHV3NRVKYK0PL86KVOW4XRDTUH54,19,1487370699205,"{""rt"": [37723, 97, 283], ""trial_type"": ""graph"", ""infoCost"": 0.05, ""minTime"": 45, ""actionTimes"": [37723, 38307, 39076], ""time_elapsed"": 1539840, ""actions"": [""down"", ""down"", ""right""], ""trialIndex"": 14, ""score"": 1.35, ""internal_node_id"": ""0.0-1.0-13.0"", ""clickTimes"": [1505, 2140, 2788, 3375, 4536, 5385, 6344, 6963, 7790, 8416, 9619, 10107, 10774, 19554, 20174, 20647], ""path"": [1, 5, 9, 17], ""trialID"": 12, ""clicks"": [""3"", ""4"", ""5"", ""2"", ""7"", ""8"", ""15"", ""14"", ""13"", ""12"", ""6"", ""10"", ""11"", ""9"", ""16"", ""17""], ""trial_index"": 19}"
A1YVMDRR9W1LZ1:3XUHV3NRVKYK0PL86KVOW4XRDTUH54,20,1487370746376,"{""rt"": [13882, 208, 182], ""trial_type"": ""graph"", ""infoCost"": 0.05, ""minTime"": 45, ""actionTimes"": [13882, 14582, 15256], ""time_elapsed"": 1587011, ""actions"": [""right"", ""right"", ""down""], ""trialIndex"": 15, ""score"": 4.53, ""internal_node_id"": ""0.0-1.0-14.0"", ""clickTimes"": [1652, 2388, 3020, 3585, 4425, 5098, 5976, 7750, 8420, 8860, 9673, 9963, 10506, 11251, 11610, 12038], ""path"": [1, 2, 6, 11], ""trialID"": 16, ""clicks"": [""3"", ""4"", ""5"", ""2"", ""6"", ""10"", ""11"", ""7"", ""12"", ""13"", ""8"", ""14"", ""15"", ""9"", ""16"", ""17""], ""trial_index"": 20}"
A1YVMDRR9W1LZ1:3XUHV3NRVKYK0PL86KVOW4XRDTUH54,21,1487370797199,"{""rt"": [38855, 121, 160], ""trial_type"": ""graph"", ""infoCost"": 0.05, ""minTime"": 45, ""actionTimes"": [38855, 39485, 40156], ""time_elapsed"": 1637834, ""actions"": [""up"", ""up"", ""right""], ""trialIndex"": 16, ""score"": 2.94, ""internal_node_id"": ""0.0-1.0-15.0"", ""clickTimes"": [2073, 2693, 3251, 3858, 17657, 18304, 18901, 19845, 20247, 20756, 21507, 21848, 22340, 23795, 24249, 24873], ""path"": [1, 3, 7, 13], ""trialID"": 10, ""clicks"": [""3"", ""4"", ""5"", ""2"", ""6"", ""10"", ""11"", ""9"", ""17"", ""16"", ""8"", ""15"", ""14"", ""7"", ""13"", ""12""], ""trial_index"": 21}"
