A11UOM2LJ69AE7:33PPUNGG385VWXJ09DEYZC6T4SPRZU,0,1493672965484,"{""rt"": 4909, ""trial_type"": ""text"", ""internal_node_id"": ""0.0-0.0"", ""time_elapsed"": 4916, ""key_press"": 32, ""trial_index"": 0}"
A11UOM2LJ69AE7:33PPUNGG385VWXJ09DEYZC6T4SPRZU,1,1493673010593,"{""rt"": 44107, ""trial_type"": ""instructions"", ""view_history"": ""[{\""page_index\"":0,\""viewing_time\"":15742},{\""page_index\"":1,\""viewing_time\"":12950},{\""page_index\"":2,\""viewing_time\"":6690},{\""page_index\"":3,\""viewing_time\"":8723}]"", ""internal_node_id"": ""0.0-1.0-0.0"", ""time_elapsed"": 50026, ""trial_index"": 1}"
A11UOM2LJ69AE7:33PPUNGG385VWXJ09DEYZC6T4SPRZU,2,1493673074257,"{""rt"": 58079, ""trial_type"": ""survey-multi-choice"", ""responses"": ""[\""4\"",\""True\"",\""$0.10\"",\""At most 15\"",\""My earnings for each round are equal to the <i>sum</i> of the values of all locations I visit (minus the cost of making observations), and I will be paid the earnings from one of the 12 rounds.\"",\""False\""]"", ""internal_node_id"": ""0.0-1.0-1.0"", ""time_elapsed"": 113690, ""questions"": ""[\""How many flights are there per round?\"",\""True or false: The hidden values will change each time I start a new round.\"",\""How much does it cost to observe each hidden value?\"",\""How many hidden values am I allowed to observe in each round?\"",\""Which statement is TRUE?\"",\""True of false: The duration of the delay tells me how much more money I could have earned by planning and deciding better.\""]"", ""correct"": [false, true, true, false, true, false], ""trial_index"": 2}"
A11UOM2LJ69AE7:33PPUNGG385VWXJ09DEYZC6T4SPRZU,3,1493673142068,"{""rt"": 66809, ""trial_type"": ""instructions"", ""view_history"": ""[{\""page_index\"":0,\""viewing_time\"":31115},{\""page_index\"":1,\""viewing_time\"":12117},{\""page_index\"":2,\""viewing_time\"":18965},{\""page_index\"":3,\""viewing_time\"":4611}]"", ""internal_node_id"": ""0.0-1.1-0.1"", ""time_elapsed"": 181501, ""trial_index"": 3}"
A11UOM2LJ69AE7:33PPUNGG385VWXJ09DEYZC6T4SPRZU,4,1493673187553,"{""rt"": 41915, ""trial_type"": ""survey-multi-choice"", ""responses"": ""[\""4\"",\""True\"",\""$0.10\"",\""As many or as few as I wish\"",\""My earnings for each round are equal to the <i>sum</i> of the values of all locations I visit (minus the cost of making observations), and I will be paid the earnings from one of the 12 rounds.\"",\""False\""]"", ""internal_node_id"": ""0.0-1.1-1.1"", ""time_elapsed"": 226986, ""questions"": ""[\""How many flights are there per round?\"",\""True or false: The hidden values will change each time I start a new round.\"",\""How much does it cost to observe each hidden value?\"",\""How many hidden values am I allowed to observe in each round?\"",\""Which statement is TRUE?\"",\""True of false: The duration of the delay tells me how much more money I could have earned by planning and deciding better.\""]"", ""correct"": [false, true, true, true, true, false], ""trial_index"": 4}"
A11UOM2LJ69AE7:33PPUNGG385VWXJ09DEYZC6T4SPRZU,5,1493673290014,"{""rt"": 101459, ""trial_type"": ""instructions"", ""view_history"": ""[{\""page_index\"":0,\""viewing_time\"":31860},{\""page_index\"":1,\""viewing_time\"":27172},{\""page_index\"":2,\""viewing_time\"":30323},{\""page_index\"":3,\""viewing_time\"":12103}]"", ""internal_node_id"": ""0.0-1.2-0.2"", ""time_elapsed"": 329447, ""trial_index"": 5}"
A11UOM2LJ69AE7:33PPUNGG385VWXJ09DEYZC6T4SPRZU,6,1493673341007,"{""rt"": 46943, ""trial_type"": ""survey-multi-choice"", ""responses"": ""[\""4\"",\""True\"",\""$0.10\"",\""As many or as few as I wish\"",\""My earnings for each round are equal to the <i>sum</i> of the values of all locations I visit (minus the cost of making observations), but these earnings aren't real money.\"",\""False\""]"", ""internal_node_id"": ""0.0-1.2-1.2"", ""time_elapsed"": 380440, ""questions"": ""[\""How many flights are there per round?\"",\""True or false: The hidden values will change each time I start a new round.\"",\""How much does it cost to observe each hidden value?\"",\""How many hidden values am I allowed to observe in each round?\"",\""Which statement is TRUE?\"",\""True of false: The duration of the delay tells me how much more money I could have earned by planning and deciding better.\""]"", ""correct"": [false, true, true, true, false, false], ""trial_index"": 6}"
A11UOM2LJ69AE7:33PPUNGG385VWXJ09DEYZC6T4SPRZU,7,1493673350345,"{""rt"": 8337, ""trial_type"": ""instructions"", ""view_history"": ""[{\""page_index\"":0,\""viewing_time\"":3464},{\""page_index\"":1,\""viewing_time\"":1238},{\""page_index\"":2,\""viewing_time\"":2005},{\""page_index\"":3,\""viewing_time\"":1629}]"", ""internal_node_id"": ""0.0-1.3-0.3"", ""time_elapsed"": 389778, ""trial_index"": 7}"
A11UOM2LJ69AE7:33PPUNGG385VWXJ09DEYZC6T4SPRZU,8,1493673377463,"{""rt"": 23429, ""trial_type"": ""survey-multi-choice"", ""responses"": ""[\""4\"",\""True\"",\""$0.10\"",\""As many or as few as I wish\"",\""My earnings for each round are equal to the <i>sum</i> of the values of all locations I visit (minus the cost of making observations), and I will be paid the earnings from one of the 12 rounds.\"",\""True\""]"", ""internal_node_id"": ""0.0-1.3-1.3"", ""time_elapsed"": 416896, ""questions"": ""[\""How many flights are there per round?\"",\""True or false: The hidden values will change each time I start a new round.\"",\""How much does it cost to observe each hidden value?\"",\""How many hidden values am I allowed to observe in each round?\"",\""Which statement is TRUE?\"",\""True of false: The duration of the delay tells me how much more money I could have earned by planning and deciding better.\""]"", ""correct"": [false, true, true, true, true, true], ""trial_index"": 8}"
A11UOM2LJ69AE7:33PPUNGG385VWXJ09DEYZC6T4SPRZU,9,1493673395458,"{""rt"": 16993, ""trial_type"": ""instructions"", ""view_history"": ""[{\""page_index\"":0,\""viewing_time\"":3947},{\""page_index\"":1,\""viewing_time\"":5067},{\""page_index\"":2,\""viewing_time\"":4525},{\""page_index\"":3,\""viewing_time\"":3453}]"", ""internal_node_id"": ""0.0-1.4-0.4"", ""time_elapsed"": 434891, ""trial_index"": 9}"
A11UOM2LJ69AE7:33PPUNGG385VWXJ09DEYZC6T4SPRZU,10,1493673418767,"{""rt"": 20650, ""trial_type"": ""survey-multi-choice"", ""responses"": ""[\""4\"",\""True\"",\""$0.10\"",\""As many or as few as I wish\"",\""My earnings for each round are equal to the <i>sum</i> of the values of all locations I visit (minus the cost of making observations), but these earnings aren't real money.\"",\""True\""]"", ""internal_node_id"": ""0.0-1.4-1.4"", ""time_elapsed"": 458199, ""questions"": ""[\""How many flights are there per round?\"",\""True or false: The hidden values will change each time I start a new round.\"",\""How much does it cost to observe each hidden value?\"",\""How many hidden values am I allowed to observe in each round?\"",\""Which statement is TRUE?\"",\""True of false: The duration of the delay tells me how much more money I could have earned by planning and deciding better.\""]"", ""correct"": [false, true, true, true, false, true], ""trial_index"": 10}"
A11UOM2LJ69AE7:33PPUNGG385VWXJ09DEYZC6T4SPRZU,11,1493673434033,"{""rt"": 14265, ""trial_type"": ""instructions"", ""view_history"": ""[{\""page_index\"":0,\""viewing_time\"":3238},{\""page_index\"":1,\""viewing_time\"":4265},{\""page_index\"":2,\""viewing_time\"":3583},{\""page_index\"":3,\""viewing_time\"":3178}]"", ""internal_node_id"": ""0.0-1.5-0.5"", ""time_elapsed"": 473466, ""trial_index"": 11}"
A11UOM2LJ69AE7:33PPUNGG385VWXJ09DEYZC6T4SPRZU,12,1493673480508,"{""rt"": 39990, ""trial_type"": ""survey-multi-choice"", ""responses"": ""[\""4\"",\""True\"",\""$0.10\"",\""At most 15\"",\""My earnings for each round are equal to the <i>sum</i> of the values of all locations I visit (minus the cost of making observations), but these earnings aren't real money.\"",\""True\""]"", ""internal_node_id"": ""0.0-1.5-1.5"", ""time_elapsed"": 519941, ""questions"": ""[\""How many flights are there per round?\"",\""True or false: The hidden values will change each time I start a new round.\"",\""How much does it cost to observe each hidden value?\"",\""How many hidden values am I allowed to observe in each round?\"",\""Which statement is TRUE?\"",\""True of false: The duration of the delay tells me how much more money I could have earned by planning and deciding better.\""]"", ""correct"": [false, true, true, false, false, true], ""trial_index"": 12}"
A11UOM2LJ69AE7:33PPUNGG385VWXJ09DEYZC6T4SPRZU,13,1493673518573,"{""rt"": 37063, ""trial_type"": ""instructions"", ""view_history"": ""[{\""page_index\"":0,\""viewing_time\"":5824},{\""page_index\"":1,\""viewing_time\"":8070},{\""page_index\"":2,\""viewing_time\"":4554},{\""page_index\"":3,\""viewing_time\"":18613}]"", ""internal_node_id"": ""0.0-1.6-0.6"", ""time_elapsed"": 558005, ""trial_index"": 13}"
A11UOM2LJ69AE7:33PPUNGG385VWXJ09DEYZC6T4SPRZU,14,1493673555245,"{""rt"": 31048, ""trial_type"": ""survey-multi-choice"", ""responses"": ""[\""1\"",\""True\"",\""$0.10\"",\""At most 15\"",\""My earnings for each round are equal to the <i>sum</i> of the values of all locations I visit (minus the cost of making observations), but these earnings aren't real money.\"",\""True\""]"", ""internal_node_id"": ""0.0-1.6-1.6"", ""time_elapsed"": 594676, ""questions"": ""[\""How many flights are there per round?\"",\""True or false: The hidden values will change each time I start a new round.\"",\""How much does it cost to observe each hidden value?\"",\""How many hidden values am I allowed to observe in each round?\"",\""Which statement is TRUE?\"",\""True of false: The duration of the delay tells me how much more money I could have earned by planning and deciding better.\""]"", ""correct"": [false, true, true, false, false, true], ""trial_index"": 14}"
A11UOM2LJ69AE7:33PPUNGG385VWXJ09DEYZC6T4SPRZU,15,1493673637300,"{""rt"": 81053, ""trial_type"": ""instructions"", ""view_history"": ""[{\""page_index\"":0,\""viewing_time\"":25938},{\""page_index\"":1,\""viewing_time\"":28427},{\""page_index\"":2,\""viewing_time\"":15982},{\""page_index\"":3,\""viewing_time\"":10705}]"", ""internal_node_id"": ""0.0-1.7-0.7"", ""time_elapsed"": 676733, ""trial_index"": 15}"
A11UOM2LJ69AE7:33PPUNGG385VWXJ09DEYZC6T4SPRZU,16,1493673684984,"{""rt"": 42167, ""trial_type"": ""survey-multi-choice"", ""responses"": ""[\""1\"",\""True\"",\""$0.10\"",\""As many or as few as I wish\"",\""My earnings for each round are equal to the <i>sum</i> of the values of all locations I visit (minus the cost of making observations), and I will be paid the earnings from one of the 12 rounds.\"",\""True\""]"", ""internal_node_id"": ""0.0-1.7-1.7"", ""time_elapsed"": 724417, ""questions"": ""[\""How many flights are there per round?\"",\""True or false: The hidden values will change each time I start a new round.\"",\""How much does it cost to observe each hidden value?\"",\""How many hidden values am I allowed to observe in each round?\"",\""Which statement is TRUE?\"",\""True of false: The duration of the delay tells me how much more money I could have earned by planning and deciding better.\""]"", ""correct"": [false, true, true, true, true, true], ""trial_index"": 16}"
A11UOM2LJ69AE7:33PPUNGG385VWXJ09DEYZC6T4SPRZU,17,1493673779661,"{""rt"": 93674, ""trial_type"": ""instructions"", ""view_history"": ""[{\""page_index\"":0,\""viewing_time\"":30794},{\""page_index\"":1,\""viewing_time\"":28175},{\""page_index\"":2,\""viewing_time\"":27372},{\""page_index\"":3,\""viewing_time\"":7332}]"", ""internal_node_id"": ""0.0-1.8-0.8"", ""time_elapsed"": 819094, ""trial_index"": 17}"
A11UOM2LJ69AE7:33PPUNGG385VWXJ09DEYZC6T4SPRZU,18,1493673826977,"{""rt"": 43002, ""trial_type"": ""survey-multi-choice"", ""responses"": ""[\""1\"",\""True\"",\""$0.10\"",\""At most 5\"",\""My earnings for each round are equal to the <i>sum</i> of the values of all locations I visit (minus the cost of making observations), and I will be paid the earnings from one of the 12 rounds.\"",\""True\""]"", ""internal_node_id"": ""0.0-1.8-1.8"", ""time_elapsed"": 866409, ""questions"": ""[\""How many flights are there per round?\"",\""True or false: The hidden values will change each time I start a new round.\"",\""How much does it cost to observe each hidden value?\"",\""How many hidden values am I allowed to observe in each round?\"",\""Which statement is TRUE?\"",\""True of false: The duration of the delay tells me how much more money I could have earned by planning and deciding better.\""]"", ""correct"": [false, true, true, false, true, true], ""trial_index"": 18}"
A11UOM2LJ69AE7:33PPUNGG385VWXJ09DEYZC6T4SPRZU,19,1493673891132,"{""rt"": 63154, ""trial_type"": ""instructions"", ""view_history"": ""[{\""page_index\"":0,\""viewing_time\"":24138},{\""page_index\"":1,\""viewing_time\"":31842},{\""page_index\"":2,\""viewing_time\"":3721},{\""page_index\"":3,\""viewing_time\"":3452}]"", ""internal_node_id"": ""0.0-1.9-0.9"", ""time_elapsed"": 930565, ""trial_index"": 19}"
A11UOM2LJ69AE7:33PPUNGG385VWXJ09DEYZC6T4SPRZU,20,1493673925742,"{""rt"": 31597, ""trial_type"": ""survey-multi-choice"", ""responses"": ""[\""4\"",\""True\"",\""$0.10\"",\""As many or as few as I wish\"",\""My earnings for each round are equal to the <i>sum</i> of the values of all locations I visit (minus the cost of making observations), but these earnings aren't real money.\"",\""True\""]"", ""internal_node_id"": ""0.0-1.9-1.9"", ""time_elapsed"": 965174, ""questions"": ""[\""How many flights are there per round?\"",\""True or false: The hidden values will change each time I start a new round.\"",\""How much does it cost to observe each hidden value?\"",\""How many hidden values am I allowed to observe in each round?\"",\""Which statement is TRUE?\"",\""True of false: The duration of the delay tells me how much more money I could have earned by planning and deciding better.\""]"", ""correct"": [false, true, true, true, false, true], ""trial_index"": 20}"
A11UOM2LJ69AE7:33PPUNGG385VWXJ09DEYZC6T4SPRZU,21,1493673938749,"{""rt"": 12006, ""trial_type"": ""instructions"", ""view_history"": ""[{\""page_index\"":0,\""viewing_time\"":6952},{\""page_index\"":1,\""viewing_time\"":1238},{\""page_index\"":2,\""viewing_time\"":2114},{\""page_index\"":3,\""viewing_time\"":1701}]"", ""internal_node_id"": ""0.0-1.10-0.10"", ""time_elapsed"": 978182, ""trial_index"": 21}"
A11UOM2LJ69AE7:33PPUNGG385VWXJ09DEYZC6T4SPRZU,22,1493673970377,"{""rt"": 28881, ""trial_type"": ""survey-multi-choice"", ""responses"": ""[\""4\"",\""True\"",\""$0.10\"",\""As many or as few as I wish\"",\""My earnings for each round are equal to the <i>sum</i> of the values of all locations I visit (minus the cost of making observations), and I will be paid the earnings from one of the 12 rounds.\"",\""True\""]"", ""internal_node_id"": ""0.0-1.10-1.10"", ""time_elapsed"": 1009809, ""questions"": ""[\""How many flights are there per round?\"",\""True or false: The hidden values will change each time I start a new round.\"",\""How much does it cost to observe each hidden value?\"",\""How many hidden values am I allowed to observe in each round?\"",\""Which statement is TRUE?\"",\""True of false: The duration of the delay tells me how much more money I could have earned by planning and deciding better.\""]"", ""correct"": [false, true, true, true, true, true], ""trial_index"": 22}"
A11UOM2LJ69AE7:33PPUNGG385VWXJ09DEYZC6T4SPRZU,23,1493673991439,"{""rt"": 20059, ""trial_type"": ""instructions"", ""view_history"": ""[{\""page_index\"":0,\""viewing_time\"":3895},{\""page_index\"":1,\""viewing_time\"":4242},{\""page_index\"":2,\""viewing_time\"":5306},{\""page_index\"":3,\""viewing_time\"":6616}]"", ""internal_node_id"": ""0.0-1.11-0.11"", ""time_elapsed"": 1030871, ""trial_index"": 23}"
A11UOM2LJ69AE7:33PPUNGG385VWXJ09DEYZC6T4SPRZU,24,1493674025469,"{""rt"": 31205, ""trial_type"": ""survey-multi-choice"", ""responses"": ""[\""1\"",\""True\"",\""$0.10\"",\""As many or as few as I wish\"",\""My earnings for each round are equal to the <i>sum</i> of the values of all locations I visit (minus the cost of making observations), and I will be paid the earnings from one of the 12 rounds.\"",\""True\""]"", ""internal_node_id"": ""0.0-1.11-1.11"", ""time_elapsed"": 1064902, ""questions"": ""[\""How many flights are there per round?\"",\""True or false: The hidden values will change each time I start a new round.\"",\""How much does it cost to observe each hidden value?\"",\""How many hidden values am I allowed to observe in each round?\"",\""Which statement is TRUE?\"",\""True of false: The duration of the delay tells me how much more money I could have earned by planning and deciding better.\""]"", ""correct"": [false, true, true, true, true, true], ""trial_index"": 24}"
A11UOM2LJ69AE7:33PPUNGG385VWXJ09DEYZC6T4SPRZU,25,1493674071693,"{""rt"": 45223, ""trial_type"": ""instructions"", ""view_history"": ""[{\""page_index\"":0,\""viewing_time\"":30846},{\""page_index\"":1,\""viewing_time\"":8505},{\""page_index\"":2,\""viewing_time\"":3128},{\""page_index\"":3,\""viewing_time\"":2743}]"", ""internal_node_id"": ""0.0-1.12-0.12"", ""time_elapsed"": 1111126, ""trial_index"": 25}"
A11UOM2LJ69AE7:33PPUNGG385VWXJ09DEYZC6T4SPRZU,26,1493674088728,"{""rt"": 14240, ""trial_type"": ""survey-multi-choice"", ""responses"": ""[\""3\"",\""True\"",\""$0.10\"",\""As many or as few as I wish\"",\""My earnings for each round are equal to the <i>sum</i> of the values of all locations I visit (minus the cost of making observations), but these earnings aren't real money.\"",\""True\""]"", ""internal_node_id"": ""0.0-1.12-1.12"", ""time_elapsed"": 1128161, ""questions"": ""[\""How many flights are there per round?\"",\""True or false: The hidden values will change each time I start a new round.\"",\""How much does it cost to observe each hidden value?\"",\""How many hidden values am I allowed to observe in each round?\"",\""Which statement is TRUE?\"",\""True of false: The duration of the delay tells me how much more money I could have earned by planning and deciding better.\""]"", ""correct"": [true, true, true, true, false, true], ""trial_index"": 26}"
A11UOM2LJ69AE7:33PPUNGG385VWXJ09DEYZC6T4SPRZU,27,1493674098130,"{""rt"": 8400, ""trial_type"": ""instructions"", ""view_history"": ""[{\""page_index\"":0,\""viewing_time\"":4816},{\""page_index\"":1,\""viewing_time\"":1144},{\""page_index\"":2,\""viewing_time\"":1310},{\""page_index\"":3,\""viewing_time\"":1129}]"", ""internal_node_id"": ""0.0-1.13-0.13"", ""time_elapsed"": 1137563, ""trial_index"": 27}"
A11UOM2LJ69AE7:33PPUNGG385VWXJ09DEYZC6T4SPRZU,28,1493674124010,"{""rt"": 23081, ""trial_type"": ""survey-multi-choice"", ""responses"": ""[\""3\"",\""True\"",\""$0.10\"",\""As many or as few as I wish\"",\""My earnings for each round are equal to the <i>sum</i> of the values of all locations I visit (minus the cost of making observations), but these earnings aren't real money.\"",\""True\""]"", ""internal_node_id"": ""0.0-1.13-1.13"", ""time_elapsed"": 1163443, ""questions"": ""[\""How many flights are there per round?\"",\""True or false: The hidden values will change each time I start a new round.\"",\""How much does it cost to observe each hidden value?\"",\""How many hidden values am I allowed to observe in each round?\"",\""Which statement is TRUE?\"",\""True of false: The duration of the delay tells me how much more money I could have earned by planning and deciding better.\""]"", ""correct"": [true, true, true, true, false, true], ""trial_index"": 28}"
A11UOM2LJ69AE7:33PPUNGG385VWXJ09DEYZC6T4SPRZU,29,1493674140672,"{""rt"": 15661, ""trial_type"": ""instructions"", ""view_history"": ""[{\""page_index\"":0,\""viewing_time\"":2219},{\""page_index\"":1,\""viewing_time\"":4885},{\""page_index\"":2,\""viewing_time\"":3222},{\""page_index\"":3,\""viewing_time\"":5334}]"", ""internal_node_id"": ""0.0-1.14-0.14"", ""time_elapsed"": 1180105, ""trial_index"": 29}"
A11UOM2LJ69AE7:33PPUNGG385VWXJ09DEYZC6T4SPRZU,30,1493674156499,"{""rt"": 14794, ""trial_type"": ""survey-multi-choice"", ""responses"": ""[\""3\"",\""True\"",\""$0.10\"",\""As many or as few as I wish\"",\""My earnings for each round are equal to the <i>sum</i> of the values of all locations I visit (minus the cost of making observations), and I will be paid the earnings from one of the 12 rounds.\"",\""True\""]"", ""internal_node_id"": ""0.0-1.14-1.14"", ""time_elapsed"": 1195932, ""questions"": ""[\""How many flights are there per round?\"",\""True or false: The hidden values will change each time I start a new round.\"",\""How much does it cost to observe each hidden value?\"",\""How many hidden values am I allowed to observe in each round?\"",\""Which statement is TRUE?\"",\""True of false: The duration of the delay tells me how much more money I could have earned by planning and deciding better.\""]"", ""correct"": [true, true, true, true, true, true], ""trial_index"": 30}"
A11UOM2LJ69AE7:33PPUNGG385VWXJ09DEYZC6T4SPRZU,31,1493674218509,"{""rt"": [14180, 1545, 3], ""trial_type"": ""graph"", ""infoCost"": 0.1, ""feedback"": true, ""minTime"": 45, ""delays"": [8, 0, 0], ""actionTimes"": [14182, 25639, 27479], ""time_elapsed"": 1257942, ""actions"": [""right"", ""right"", ""down""], ""trialIndex"": 1, ""score"": 37.6, ""trial_index"": 31, ""internal_node_id"": ""0.0-2.0-0.0"", ""clickTimes"": [3875, 6650, 8077, 10872], ""path"": [1, 2, 6, 11], ""trialID"": 6, ""clicks"": [""2"", ""6"", ""10"", ""11""], ""condition"": 2}"
A11UOM2LJ69AE7:33PPUNGG385VWXJ09DEYZC6T4SPRZU,32,1493674270609,"{""rt"": [24203, 33, 2], ""trial_type"": ""graph"", ""infoCost"": 0.1, ""feedback"": true, ""minTime"": 45, ""delays"": [0, 0, 0], ""actionTimes"": [24203, 25339, 26734], ""time_elapsed"": 1310042, ""actions"": [""right"", ""right"", ""down""], ""trialIndex"": 2, ""score"": 36.5, ""trial_index"": 32, ""internal_node_id"": ""0.0-2.0-1.0"", ""clickTimes"": [1841, 3180, 4599, 5758, 7893, 8965, 9848, 11296, 13272, 14967, 15936, 18948, 19824, 20932, 22148], ""path"": [1, 2, 6, 11], ""trialID"": 11, ""clicks"": [""5"", ""9"", ""16"", ""17"", ""3"", ""7"", ""13"", ""12"", ""4"", ""8"", ""14"", ""2"", ""6"", ""10"", ""11""], ""condition"": 2}"
A11UOM2LJ69AE7:33PPUNGG385VWXJ09DEYZC6T4SPRZU,33,1493674319277,"{""rt"": [18606, 3, 2408], ""trial_type"": ""graph"", ""infoCost"": 0.1, ""feedback"": true, ""minTime"": 45, ""delays"": [-1, 0, 0], ""actionTimes"": [18606, 20100, 24071], ""time_elapsed"": 1358710, ""actions"": [""left"", ""left"", ""down""], ""trialIndex"": 3, ""score"": 38.7, ""trial_index"": 33, ""internal_node_id"": ""0.0-2.0-2.0"", ""clickTimes"": [1305, 2579, 3767, 5113, 5997, 7126, 8639, 9703, 11802, 12947, 13807, 15096, 21923], ""path"": [1, 4, 8, 15], ""trialID"": 0, ""clicks"": [""2"", ""3"", ""4"", ""7"", ""13"", ""12"", ""8"", ""14"", ""5"", ""9"", ""16"", ""17"", ""15""], ""condition"": 2}"
A11UOM2LJ69AE7:33PPUNGG385VWXJ09DEYZC6T4SPRZU,34,1493674367304,"{""rt"": [25688, 486, 1638], ""trial_type"": ""graph"", ""infoCost"": 0.1, ""feedback"": true, ""minTime"": 45, ""delays"": [0, 0, 0], ""actionTimes"": [25688, 26697, 29577], ""time_elapsed"": 1406736, ""actions"": [""right"", ""right"", ""up""], ""trialIndex"": 4, ""score"": 20.4, ""trial_index"": 34, ""internal_node_id"": ""0.0-2.0-3.0"", ""clickTimes"": [1544, 2615, 3593, 5108, 6409, 7581, 8827, 9840, 11382, 12483, 13402, 15024, 16529, 17637, 18730, 22191], ""path"": [1, 2, 6, 10], ""trialID"": 10, ""clicks"": [""2"", ""6"", ""10"", ""11"", ""4"", ""3"", ""8"", ""14"", ""7"", ""13"", ""12"", ""5"", ""9"", ""17"", ""16"", ""15""], ""condition"": 2}"
A11UOM2LJ69AE7:33PPUNGG385VWXJ09DEYZC6T4SPRZU,35,1493674418653,"{""rt"": [21408, 160, 5], ""trial_type"": ""graph"", ""infoCost"": 0.1, ""feedback"": true, ""minTime"": 45, ""delays"": [0, 0, 0], ""actionTimes"": [21409, 22645, 24003], ""time_elapsed"": 1458085, ""actions"": [""left"", ""left"", ""up""], ""trialIndex"": 5, ""score"": 32.5, ""trial_index"": 35, ""internal_node_id"": ""0.0-2.0-4.0"", ""clickTimes"": [1658, 2569, 3858, 4886, 6682, 7536, 8376, 9802, 11307, 12299, 14255, 15542, 16570, 17518, 18750], ""path"": [1, 4, 8, 14], ""trialID"": 5, ""clicks"": [""2"", ""6"", ""10"", ""11"", ""3"", ""7"", ""13"", ""4"", ""8"", ""14"", ""15"", ""5"", ""9"", ""16"", ""17""], ""condition"": 2}"
A11UOM2LJ69AE7:33PPUNGG385VWXJ09DEYZC6T4SPRZU,36,1493674468016,"{""rt"": [17192, 3, 3], ""trial_type"": ""graph"", ""infoCost"": 0.1, ""feedback"": true, ""minTime"": 45, ""delays"": [-1, 0, 0], ""actionTimes"": [17194, 18540, 20069], ""time_elapsed"": 1507448, ""actions"": [""right"", ""right"", ""up""], ""trialIndex"": 6, ""score"": 32.9, ""trial_index"": 36, ""internal_node_id"": ""0.0-2.0-5.0"", ""clickTimes"": [1581, 2760, 3709, 4773, 7234, 8944, 10016, 11543, 12405, 13345, 14591], ""path"": [1, 2, 6, 10], ""trialID"": 2, ""clicks"": [""4"", ""8"", ""14"", ""15"", ""3"", ""5"", ""9"", ""2"", ""6"", ""10"", ""11""], ""condition"": 2}"
A11UOM2LJ69AE7:33PPUNGG385VWXJ09DEYZC6T4SPRZU,37,1493674529147,"{""rt"": [18850, 1889, 3], ""trial_type"": ""graph"", ""infoCost"": 0.1, ""feedback"": true, ""minTime"": 45, ""delays"": [12, 0, 0], ""actionTimes"": [18850, 33980, 35451], ""time_elapsed"": 1568580, ""actions"": [""left"", ""left"", ""down""], ""trialIndex"": 7, ""score"": 31.2, ""trial_index"": 37, ""internal_node_id"": ""0.0-2.0-6.0"", ""clickTimes"": [1579, 2701, 3629, 6034, 8118, 9191, 10305, 11832], ""path"": [1, 4, 8, 15], ""trialID"": 8, ""clicks"": [""2"", ""6"", ""10"", ""11"", ""4"", ""8"", ""14"", ""15""], ""condition"": 2}"
A11UOM2LJ69AE7:33PPUNGG385VWXJ09DEYZC6T4SPRZU,38,1493674577519,"{""rt"": [18390, 247, 2], ""trial_type"": ""graph"", ""infoCost"": 0.1, ""feedback"": true, ""minTime"": 45, ""delays"": [0, 0, 0], ""actionTimes"": [18391, 19551, 20924], ""time_elapsed"": 1616952, ""actions"": [""down"", ""down"", ""right""], ""trialIndex"": 8, ""score"": 40.7, ""trial_index"": 38, ""internal_node_id"": ""0.0-2.0-7.0"", ""clickTimes"": [2111, 3297, 4498, 5345, 6786, 8358, 9182, 10131, 11260, 12447, 13534, 14576, 15966], ""path"": [1, 5, 9, 17], ""trialID"": 4, ""clicks"": [""2"", ""3"", ""7"", ""13"", ""12"", ""4"", ""8"", ""14"", ""15"", ""5"", ""9"", ""17"", ""16""], ""condition"": 2}"
A11UOM2LJ69AE7:33PPUNGG385VWXJ09DEYZC6T4SPRZU,39,1493674582422,"{""rt"": 3900, ""trial_type"": ""text"", ""internal_node_id"": ""0.0-3.0"", ""time_elapsed"": 1621855, ""key_press"": 32, ""trial_index"": 39}"
A11UOM2LJ69AE7:33PPUNGG385VWXJ09DEYZC6T4SPRZU,40,1493674586638,"{""rt"": 3213, ""trial_type"": ""text"", ""internal_node_id"": ""0.0-4.0-0.0"", ""time_elapsed"": 1626071, ""key_press"": 32, ""trial_index"": 40}"
A11UOM2LJ69AE7:33PPUNGG385VWXJ09DEYZC6T4SPRZU,41,1493674635120,"{""rt"": [14635, 1554, 3], ""trial_type"": ""graph"", ""infoCost"": 0.1, ""feedback"": false, ""minTime"": 45, ""delays"": [-1, 0, 0], ""actionTimes"": [14635, 17512, 19006], ""time_elapsed"": 1674553, ""actions"": [""up"", ""up"", ""left""], ""trialIndex"": 1, ""score"": 36, ""trial_index"": 41, ""internal_node_id"": ""0.0-5.0-0.0"", ""clickTimes"": [1923, 3052, 4210, 5094, 6063, 7316, 8243, 9418, 10523, 11667], ""path"": [1, 3, 7, 12], ""trialID"": 9, ""clicks"": [""2"", ""3"", ""7"", ""13"", ""12"", ""4"", ""8"", ""14"", ""15"", ""5""], ""condition"": 2}"
A11UOM2LJ69AE7:33PPUNGG385VWXJ09DEYZC6T4SPRZU,42,1493674685243,"{""rt"": [25715, 463, 306], ""trial_type"": ""graph"", ""infoCost"": 0.1, ""feedback"": false, ""minTime"": 45, ""delays"": [0, 0, 0], ""actionTimes"": [25715, 26696, 28226], ""time_elapsed"": 1724676, ""actions"": [""right"", ""right"", ""up""], ""trialIndex"": 2, ""score"": 32.4, ""trial_index"": 42, ""internal_node_id"": ""0.0-5.0-1.0"", ""clickTimes"": [1226, 2384, 3484, 4701, 6178, 7090, 8568, 10139, 12020, 12809, 14511, 16429, 17964, 19478, 20404, 21352], ""path"": [1, 2, 6, 10], ""trialID"": 3, ""clicks"": [""2"", ""3"", ""4"", ""5"", ""9"", ""17"", ""16"", ""11"", ""10"", ""6"", ""7"", ""13"", ""12"", ""14"", ""8"", ""15""], ""condition"": 2}"
A11UOM2LJ69AE7:33PPUNGG385VWXJ09DEYZC6T4SPRZU,43,1493674734277,"{""rt"": [14743, 3, 5], ""trial_type"": ""graph"", ""infoCost"": 0.1, ""feedback"": false, ""minTime"": 45, ""delays"": [-1, 0, 0], ""actionTimes"": [14744, 16160, 17728], ""time_elapsed"": 1773709, ""actions"": [""down"", ""down"", ""left""], ""trialIndex"": 3, ""score"": 45, ""trial_index"": 43, ""internal_node_id"": ""0.0-5.0-2.0"", ""clickTimes"": [1129, 2468, 3822, 4830, 6305, 7267, 8586, 10584, 11488, 12581], ""path"": [1, 5, 9, 16], ""trialID"": 1, ""clicks"": [""2"", ""3"", ""4"", ""5"", ""7"", ""13"", ""12"", ""9"", ""17"", ""16""], ""condition"": 2}"
A11UOM2LJ69AE7:33PPUNGG385VWXJ09DEYZC6T4SPRZU,44,1493674782645,"{""rt"": [20633, 461, 2], ""trial_type"": ""graph"", ""infoCost"": 0.1, ""feedback"": false, ""minTime"": 45, ""delays"": [0, 0, 0], ""actionTimes"": [20634, 22018, 23372], ""time_elapsed"": 1822078, ""actions"": [""down"", ""down"", ""right""], ""trialIndex"": 4, ""score"": 32.7, ""trial_index"": 44, ""internal_node_id"": ""0.0-5.0-3.0"", ""clickTimes"": [1643, 3119, 4147, 5226, 6565, 7614, 8878, 9945, 10915, 12255, 14463, 15657, 16728], ""path"": [1, 5, 9, 17], ""trialID"": 7, ""clicks"": [""2"", ""3"", ""4"", ""5"", ""6"", ""10"", ""11"", ""17"", ""9"", ""16"", ""7"", ""13"", ""12""], ""condition"": 2}"
A11UOM2LJ69AE7:33PPUNGG385VWXJ09DEYZC6T4SPRZU,45,1493674790222,"{""rt"": 6550, ""trial_type"": ""button-response"", ""button_pressed"": 0, ""stimulus"": ""<h1 id=\""thiscompletesthehit\"">This completes the HIT</h1>\n\n<p>One or your trials has been randomly selected and we will pay you 5% of\nyour profit on that trial as a bonus. You will be awarded a bonus of\n$1.02</p>"", ""internal_node_id"": ""0.0-6.0"", ""time_elapsed"": 1829655, ""trial_index"": 45}"
A12X43VFAKMR89:36ZN444YTRY64U2AHH985MYYXS3IOF,0,1493671245822,"{""rt"": 11677, ""trial_type"": ""text"", ""internal_node_id"": ""0.0-0.0"", ""time_elapsed"": 11680, ""key_press"": 32, ""trial_index"": 0}"
A12X43VFAKMR89:36ZN444YTRY64U2AHH985MYYXS3IOF,1,1493671476208,"{""rt"": 229350, ""trial_type"": ""instructions"", ""view_history"": ""[{\""page_index\"":0,\""viewing_time\"":75125},{\""page_index\"":1,\""viewing_time\"":117353},{\""page_index\"":2,\""viewing_time\"":36871}]"", ""internal_node_id"": ""0.0-1.0-0.0"", ""time_elapsed"": 242068, ""trial_index"": 1}"
A12X43VFAKMR89:36ZN444YTRY64U2AHH985MYYXS3IOF,2,1493671636560,"{""rt"": 149057, ""trial_type"": ""survey-multi-choice"", ""responses"": ""[\""2\"",\""True\"",\""$0.10\"",\""As many or as few as I wish\"",\""My earnings for each round are equal to the <i>sum</i> of the values of all locations I visit (minus the cost of making observations), and I will be paid the earnings from one of the 12 rounds.\"",\""All of the above.\""]"", ""internal_node_id"": ""0.0-1.0-1.0"", ""time_elapsed"": 402420, ""questions"": ""[\""How many flights are there per round?\"",\""True or false: The hidden values will change each time I start a new round.\"",\""How much does it cost to observe each hidden value?\"",\""How many hidden values am I allowed to observe in each round?\"",\""Which statement is TRUE?\"",\""What does the feedback teach me?\""]"", ""correct"": [false, true, true, true, true, true], ""trial_index"": 2}"
A12X43VFAKMR89:36ZN444YTRY64U2AHH985MYYXS3IOF,3,1493671768378,"{""rt"": 130813, ""trial_type"": ""instructions"", ""view_history"": ""[{\""page_index\"":0,\""viewing_time\"":16904},{\""page_index\"":1,\""viewing_time\"":68241},{\""page_index\"":0,\""viewing_time\"":12084},{\""page_index\"":1,\""viewing_time\"":5449},{\""page_index\"":2,\""viewing_time\"":28133}]"", ""internal_node_id"": ""0.0-1.1-0.1"", ""time_elapsed"": 534238, ""trial_index"": 3}"
A12X43VFAKMR89:36ZN444YTRY64U2AHH985MYYXS3IOF,4,1493671837880,"{""rt"": 66686, ""trial_type"": ""survey-multi-choice"", ""responses"": ""[\""1\"",\""True\"",\""$0.10\"",\""As many or as few as I wish\"",\""My earnings for each round are equal to the <i>sum</i> of the values of all locations I visit (minus the cost of making observations), and I will be paid the earnings from one of the 12 rounds.\"",\""All of the above.\""]"", ""internal_node_id"": ""0.0-1.1-1.1"", ""time_elapsed"": 603740, ""questions"": ""[\""How many flights are there per round?\"",\""True or false: The hidden values will change each time I start a new round.\"",\""How much does it cost to observe each hidden value?\"",\""How many hidden values am I allowed to observe in each round?\"",\""Which statement is TRUE?\"",\""What does the feedback teach me?\""]"", ""correct"": [false, true, true, true, true, true], ""trial_index"": 4}"
A12X43VFAKMR89:36ZN444YTRY64U2AHH985MYYXS3IOF,5,1493671910137,"{""rt"": 71250, ""trial_type"": ""instructions"", ""view_history"": ""[{\""page_index\"":0,\""viewing_time\"":17370},{\""page_index\"":1,\""viewing_time\"":36036},{\""page_index\"":2,\""viewing_time\"":17842}]"", ""internal_node_id"": ""0.0-1.2-0.2"", ""time_elapsed"": 675997, ""trial_index"": 5}"
A12X43VFAKMR89:36ZN444YTRY64U2AHH985MYYXS3IOF,6,1493671957305,"{""rt"": 44165, ""trial_type"": ""survey-multi-choice"", ""responses"": ""[\""2\"",\""True\"",\""$0.10\"",\""As many or as few as I wish\"",\""My earnings for each round are equal to the <i>sum</i> of the values of all locations I visit (minus the cost of making observations), but these earnings aren't real money.\"",\""All of the above.\""]"", ""internal_node_id"": ""0.0-1.2-1.2"", ""time_elapsed"": 723165, ""questions"": ""[\""How many flights are there per round?\"",\""True or false: The hidden values will change each time I start a new round.\"",\""How much does it cost to observe each hidden value?\"",\""How many hidden values am I allowed to observe in each round?\"",\""Which statement is TRUE?\"",\""What does the feedback teach me?\""]"", ""correct"": [false, true, true, true, false, true], ""trial_index"": 6}"
A12X43VFAKMR89:36ZN444YTRY64U2AHH985MYYXS3IOF,7,1493671972067,"{""rt"": 13757, ""trial_type"": ""instructions"", ""view_history"": ""[{\""page_index\"":0,\""viewing_time\"":3681},{\""page_index\"":1,\""viewing_time\"":3508},{\""page_index\"":2,\""viewing_time\"":6566}]"", ""internal_node_id"": ""0.0-1.3-0.3"", ""time_elapsed"": 737927, ""trial_index"": 7}"
A12X43VFAKMR89:36ZN444YTRY64U2AHH985MYYXS3IOF,8,1493671995479,"{""rt"": 20619, ""trial_type"": ""survey-multi-choice"", ""responses"": ""[\""2\"",\""True\"",\""$0.10\"",\""As many or as few as I wish\"",\""My earnings for each round are equal to the <i>sum</i> of the values of all locations I visit (minus the cost of making observations), and I will be paid the earnings from one of the 12 rounds.\"",\""Whether I observed the rewards of relevant locations.\""]"", ""internal_node_id"": ""0.0-1.3-1.3"", ""time_elapsed"": 761339, ""questions"": ""[\""How many flights are there per round?\"",\""True or false: The hidden values will change each time I start a new round.\"",\""How much does it cost to observe each hidden value?\"",\""How many hidden values am I allowed to observe in each round?\"",\""Which statement is TRUE?\"",\""What does the feedback teach me?\""]"", ""correct"": [false, true, true, true, true, false], ""trial_index"": 8}"
A12X43VFAKMR89:36ZN444YTRY64U2AHH985MYYXS3IOF,9,1493672000496,"{""rt"": 4011, ""trial_type"": ""instructions"", ""view_history"": ""[{\""page_index\"":0,\""viewing_time\"":2212},{\""page_index\"":1,\""viewing_time\"":1115},{\""page_index\"":2,\""viewing_time\"":683}]"", ""internal_node_id"": ""0.0-1.4-0.4"", ""time_elapsed"": 766356, ""trial_index"": 9}"
A12X43VFAKMR89:36ZN444YTRY64U2AHH985MYYXS3IOF,10,1493672027283,"{""rt"": 24196, ""trial_type"": ""survey-multi-choice"", ""responses"": ""[\""2\"",\""True\"",\""$0.10\"",\""As many or as few as I wish\"",\""My earnings for each round are equal to the <i>sum</i> of the values of all locations I visit (minus the cost of making observations), and I will be paid the earnings from one of the 12 rounds.\"",\""Whether I chose the move that was best according to the information I had.\""]"", ""internal_node_id"": ""0.0-1.4-1.4"", ""time_elapsed"": 793143, ""questions"": ""[\""How many flights are there per round?\"",\""True or false: The hidden values will change each time I start a new round.\"",\""How much does it cost to observe each hidden value?\"",\""How many hidden values am I allowed to observe in each round?\"",\""Which statement is TRUE?\"",\""What does the feedback teach me?\""]"", ""correct"": [false, true, true, true, true, false], ""trial_index"": 10}"
A12X43VFAKMR89:36ZN444YTRY64U2AHH985MYYXS3IOF,11,1493672032033,"{""rt"": 3745, ""trial_type"": ""instructions"", ""view_history"": ""[{\""page_index\"":0,\""viewing_time\"":2088},{\""page_index\"":1,\""viewing_time\"":983},{\""page_index\"":2,\""viewing_time\"":673}]"", ""internal_node_id"": ""0.0-1.5-0.5"", ""time_elapsed"": 797893, ""trial_index"": 11}"
A12X43VFAKMR89:36ZN444YTRY64U2AHH985MYYXS3IOF,12,1493672053407,"{""rt"": 18719, ""trial_type"": ""survey-multi-choice"", ""responses"": ""[\""2\"",\""True\"",\""$0.10\"",\""As many or as few as I wish\"",\""My earnings for each round are equal to the <i>sum</i> of the values of all locations I visit (minus the cost of making observations), and I will be paid the earnings from one of the 12 rounds.\"",\""The duration of the delay tells me how much more money I could have earned by planning and deciding better.\""]"", ""internal_node_id"": ""0.0-1.5-1.5"", ""time_elapsed"": 819267, ""questions"": ""[\""How many flights are there per round?\"",\""True or false: The hidden values will change each time I start a new round.\"",\""How much does it cost to observe each hidden value?\"",\""How many hidden values am I allowed to observe in each round?\"",\""Which statement is TRUE?\"",\""What does the feedback teach me?\""]"", ""correct"": [false, true, true, true, true, false], ""trial_index"": 12}"
A12X43VFAKMR89:36ZN444YTRY64U2AHH985MYYXS3IOF,13,1493672059184,"{""rt"": 4769, ""trial_type"": ""instructions"", ""view_history"": ""[{\""page_index\"":0,\""viewing_time\"":2797},{\""page_index\"":1,\""viewing_time\"":1283},{\""page_index\"":2,\""viewing_time\"":687}]"", ""internal_node_id"": ""0.0-1.6-0.6"", ""time_elapsed"": 825044, ""trial_index"": 13}"
A12X43VFAKMR89:36ZN444YTRY64U2AHH985MYYXS3IOF,14,1493672096271,"{""rt"": 33177, ""trial_type"": ""survey-multi-choice"", ""responses"": ""[\""2\"",\""True\"",\""$0.10\"",\""As many or as few as I wish\"",\""My earnings for each round are equal to the <i>sum</i> of the values of all locations I visit (minus the cost of making observations), and I will be paid the earnings from one of the 12 rounds.\"",\""The duration of the delay tells me how much more money I could have earned by planning and deciding better.\""]"", ""internal_node_id"": ""0.0-1.6-1.6"", ""time_elapsed"": 862131, ""questions"": ""[\""How many flights are there per round?\"",\""True or false: The hidden values will change each time I start a new round.\"",\""How much does it cost to observe each hidden value?\"",\""How many hidden values am I allowed to observe in each round?\"",\""Which statement is TRUE?\"",\""What does the feedback teach me?\""]"", ""correct"": [false, true, true, true, true, false], ""trial_index"": 14}"
A12X43VFAKMR89:36ZN444YTRY64U2AHH985MYYXS3IOF,15,1493672101224,"{""rt"": 3947, ""trial_type"": ""instructions"", ""view_history"": ""[{\""page_index\"":0,\""viewing_time\"":2295},{\""page_index\"":1,\""viewing_time\"":990},{\""page_index\"":2,\""viewing_time\"":662}]"", ""internal_node_id"": ""0.0-1.7-0.7"", ""time_elapsed"": 867084, ""trial_index"": 15}"
A12X43VFAKMR89:36ZN444YTRY64U2AHH985MYYXS3IOF,16,1493672124905,"{""rt"": 20982, ""trial_type"": ""survey-multi-choice"", ""responses"": ""[\""4\"",\""True\"",\""$0.10\"",\""As many or as few as I wish\"",\""My earnings for each round are equal to the <i>sum</i> of the values of all locations I visit (minus the cost of making observations), and I will be paid the earnings from one of the 12 rounds.\"",\""All of the above.\""]"", ""internal_node_id"": ""0.0-1.7-1.7"", ""time_elapsed"": 890765, ""questions"": ""[\""How many flights are there per round?\"",\""True or false: The hidden values will change each time I start a new round.\"",\""How much does it cost to observe each hidden value?\"",\""How many hidden values am I allowed to observe in each round?\"",\""Which statement is TRUE?\"",\""What does the feedback teach me?\""]"", ""correct"": [false, true, true, true, true, true], ""trial_index"": 16}"
A12X43VFAKMR89:36ZN444YTRY64U2AHH985MYYXS3IOF,17,1493672133173,"{""rt"": 7217, ""trial_type"": ""instructions"", ""view_history"": ""[{\""page_index\"":0,\""viewing_time\"":5555},{\""page_index\"":1,\""viewing_time\"":982},{\""page_index\"":2,\""viewing_time\"":679}]"", ""internal_node_id"": ""0.0-1.8-0.8"", ""time_elapsed"": 899033, ""trial_index"": 17}"
A12X43VFAKMR89:36ZN444YTRY64U2AHH985MYYXS3IOF,18,1493672149659,"{""rt"": 15399, ""trial_type"": ""survey-multi-choice"", ""responses"": ""[\""3\"",\""True\"",\""$0.10\"",\""As many or as few as I wish\"",\""My earnings for each round are equal to the <i>sum</i> of the values of all locations I visit (minus the cost of making observations), and I will be paid the earnings from one of the 12 rounds.\"",\""All of the above.\""]"", ""internal_node_id"": ""0.0-1.8-1.8"", ""time_elapsed"": 915519, ""questions"": ""[\""How many flights are there per round?\"",\""True or false: The hidden values will change each time I start a new round.\"",\""How much does it cost to observe each hidden value?\"",\""How many hidden values am I allowed to observe in each round?\"",\""Which statement is TRUE?\"",\""What does the feedback teach me?\""]"", ""correct"": [true, true, true, true, true, true], ""trial_index"": 18}"
A12X43VFAKMR89:36ZN444YTRY64U2AHH985MYYXS3IOF,19,1493672211148,"{""rt"": [13408, 2683, 6924], ""trial_type"": ""graph"", ""infoCost"": 0.1, ""feedback"": true, ""minTime"": 45, ""delays"": [8, 0, 1], ""actionTimes"": [13410, 25485, 33650], ""time_elapsed"": 977008, ""actions"": [""down"", ""down"", ""left""], ""trialIndex"": 1, ""score"": 11.4, ""trial_index"": 19, ""internal_node_id"": ""0.0-2.0-0.0"", ""clickTimes"": [5656, 7520, 10181, 11501, 28976, 30083], ""path"": [1, 5, 9, 16], ""trialID"": 6, ""clicks"": [""2"", ""3"", ""4"", ""5"", ""16"", ""17""], ""condition"": 1}"
A12X43VFAKMR89:36ZN444YTRY64U2AHH985MYYXS3IOF,20,1493672270757,"{""rt"": [12179, 1234, 8091], ""trial_type"": ""graph"", ""infoCost"": 0.1, ""feedback"": true, ""minTime"": 45, ""delays"": [8, 0, 1], ""actionTimes"": [12181, 22889, 32191], ""time_elapsed"": 1036617, ""actions"": [""down"", ""down"", ""right""], ""trialIndex"": 2, ""score"": 3.4, ""trial_index"": 20, ""internal_node_id"": ""0.0-2.0-1.0"", ""clickTimes"": [3162, 4140, 5706, 6843, 27415, 28221], ""path"": [1, 5, 9, 17], ""trialID"": 2, ""clicks"": [""2"", ""5"", ""4"", ""3"", ""16"", ""17""], ""condition"": 1}"
A12X43VFAKMR89:36ZN444YTRY64U2AHH985MYYXS3IOF,21,1493672333387,"{""rt"": [27053, 597, 6081], ""trial_type"": ""graph"", ""infoCost"": 0.1, ""feedback"": true, ""minTime"": 45, ""delays"": [8, 0, 1], ""actionTimes"": [27053, 37114, 44489], ""time_elapsed"": 1099247, ""actions"": [""down"", ""down"", ""right""], ""trialIndex"": 3, ""score"": 15, ""trial_index"": 21, ""internal_node_id"": ""0.0-2.0-2.0"", ""clickTimes"": [2212, 3184, 4099, 5187, 7092, 8584, 14420, 15639, 40548, 41789], ""path"": [1, 5, 9, 17], ""trialID"": 8, ""clicks"": [""3"", ""4"", ""5"", ""2"", ""8"", ""6"", ""7"", ""9"", ""17"", ""16""], ""condition"": 1}"
A12X43VFAKMR89:36ZN444YTRY64U2AHH985MYYXS3IOF,22,1493672392562,"{""rt"": [20248, 450, 2986], ""trial_type"": ""graph"", ""infoCost"": 0.1, ""feedback"": true, ""minTime"": 45, ""delays"": [8, 0, 1], ""actionTimes"": [20249, 30185, 34468], ""time_elapsed"": 1158420, ""actions"": [""up"", ""up"", ""right""], ""trialIndex"": 4, ""score"": 24.1, ""trial_index"": 22, ""internal_node_id"": ""0.0-2.0-3.0"", ""clickTimes"": [1169, 2196, 2944, 3965, 5323, 9245, 11820, 32304, 33405], ""path"": [1, 3, 7, 13], ""trialID"": 11, ""clicks"": [""3"", ""4"", ""5"", ""2"", ""6"", ""9"", ""7"", ""13"", ""12""], ""condition"": 1}"
A12X43VFAKMR89:36ZN444YTRY64U2AHH985MYYXS3IOF,23,1493672450219,"{""rt"": [25435, 375, 1872], ""trial_type"": ""graph"", ""infoCost"": 0.1, ""feedback"": true, ""minTime"": 45, ""delays"": [8, 0, 1], ""actionTimes"": [25435, 34855, 37854], ""time_elapsed"": 1216079, ""actions"": [""right"", ""right"", ""up""], ""trialIndex"": 5, ""score"": 20.9, ""trial_index"": 23, ""internal_node_id"": ""0.0-2.0-4.0"", ""clickTimes"": [1497, 2676, 3807, 4761, 6887, 8841, 11211, 17060, 18289, 21550, 22585], ""path"": [1, 2, 6, 10], ""trialID"": 10, ""clicks"": [""3"", ""4"", ""5"", ""2"", ""6"", ""7"", ""8"", ""13"", ""12"", ""10"", ""11""], ""condition"": 1}"
A12X43VFAKMR89:36ZN444YTRY64U2AHH985MYYXS3IOF,24,1493672513305,"{""rt"": [25630, 382, 1384], ""trial_type"": ""graph"", ""infoCost"": 0.1, ""feedback"": true, ""minTime"": 45, ""delays"": [8, 0, 1], ""actionTimes"": [25630, 35064, 37605], ""time_elapsed"": 1279165, ""actions"": [""down"", ""down"", ""right""], ""trialIndex"": 6, ""score"": 32.9, ""trial_index"": 24, ""internal_node_id"": ""0.0-2.0-5.0"", ""clickTimes"": [1706, 2538, 3288, 4467, 6219, 7456, 10080, 19535, 20596, 22098, 23613], ""path"": [1, 5, 9, 17], ""trialID"": 7, ""clicks"": [""2"", ""3"", ""4"", ""5"", ""6"", ""7"", ""9"", ""11"", ""10"", ""17"", ""16""], ""condition"": 1}"
A12X43VFAKMR89:36ZN444YTRY64U2AHH985MYYXS3IOF,25,1493672572235,"{""rt"": [19945, 560, 1892], ""trial_type"": ""graph"", ""infoCost"": 0.1, ""feedback"": true, ""minTime"": 45, ""delays"": [8, 0, 1], ""actionTimes"": [19946, 29796, 32881], ""time_elapsed"": 1338095, ""actions"": [""left"", ""left"", ""up""], ""trialIndex"": 7, ""score"": 33.1, ""trial_index"": 25, ""internal_node_id"": ""0.0-2.0-6.0"", ""clickTimes"": [1696, 2491, 3417, 4517, 5999, 8388, 12466, 17122, 18332], ""path"": [1, 4, 8, 14], ""trialID"": 5, ""clicks"": [""3"", ""4"", ""5"", ""2"", ""7"", ""9"", ""8"", ""14"", ""15""], ""condition"": 1}"
A12X43VFAKMR89:36ZN444YTRY64U2AHH985MYYXS3IOF,26,1493672632079,"{""rt"": [18130, 482, 1461], ""trial_type"": ""graph"", ""infoCost"": 0.1, ""feedback"": true, ""minTime"": 45, ""delays"": [8, 0, 1], ""actionTimes"": [18131, 27787, 30410], ""time_elapsed"": 1397939, ""actions"": [""down"", ""down"", ""left""], ""trialIndex"": 8, ""score"": 45, ""trial_index"": 26, ""internal_node_id"": ""0.0-2.0-7.0"", ""clickTimes"": [1071, 1973, 2772, 3470, 5328, 7206, 11483, 12495, 14304, 15603], ""path"": [1, 5, 9, 16], ""trialID"": 1, ""clicks"": [""3"", ""4"", ""5"", ""2"", ""7"", ""9"", ""13"", ""12"", ""16"", ""17""], ""condition"": 1}"
A12X43VFAKMR89:36ZN444YTRY64U2AHH985MYYXS3IOF,27,1493673248950,"{""rt"": 615848, ""trial_type"": ""delay"", ""time_elapsed"": 2014809, ""internal_node_id"": ""0.0-3.0"", ""trial_index"": 27}"
A12X43VFAKMR89:36ZN444YTRY64U2AHH985MYYXS3IOF,28,1493673306311,"{""rt"": [14722, 13, 13], ""trial_type"": ""graph"", ""infoCost"": 0.1, ""feedback"": false, ""minTime"": 45, ""delays"": [8, 0, 1], ""actionTimes"": [14723, 16087, 17359], ""time_elapsed"": 2072170, ""actions"": [""down"", ""down"", ""right""], ""trialIndex"": 1, ""score"": 41.2, ""trial_index"": 28, ""internal_node_id"": ""0.0-5.0-0.0"", ""clickTimes"": [4181, 5043, 5923, 6783, 8397, 9573, 12293, 13059], ""path"": [1, 5, 9, 17], ""trialID"": 4, ""clicks"": [""2"", ""5"", ""4"", ""3"", ""8"", ""9"", ""16"", ""17""], ""condition"": 1}"
A12X43VFAKMR89:36ZN444YTRY64U2AHH985MYYXS3IOF,29,1493673355565,"{""rt"": [17133, 36, 15], ""trial_type"": ""graph"", ""infoCost"": 0.1, ""feedback"": false, ""minTime"": 45, ""delays"": [8, 0, 1], ""actionTimes"": [17134, 18261, 19456], ""time_elapsed"": 2121425, ""actions"": [""right"", ""right"", ""up""], ""trialIndex"": 2, ""score"": 32.9, ""trial_index"": 29, ""internal_node_id"": ""0.0-5.0-1.0"", ""clickTimes"": [1682, 3002, 3698, 4507, 6050, 7131, 8400, 10163, 11636, 13162, 14750], ""path"": [1, 2, 6, 10], ""trialID"": 3, ""clicks"": [""2"", ""3"", ""4"", ""5"", ""9"", ""17"", ""16"", ""6"", ""7"", ""10"", ""11""], ""condition"": 1}"
A12X43VFAKMR89:36ZN444YTRY64U2AHH985MYYXS3IOF,30,1493673403671,"{""rt"": [21331, 144, 63], ""trial_type"": ""graph"", ""infoCost"": 0.1, ""feedback"": false, ""minTime"": 45, ""delays"": [8, 0, 1], ""actionTimes"": [21331, 22403, 23595], ""time_elapsed"": 2169531, ""actions"": [""left"", ""left"", ""down""], ""trialIndex"": 3, ""score"": 38.7, ""trial_index"": 30, ""internal_node_id"": ""0.0-5.0-2.0"", ""clickTimes"": [1455, 2515, 3280, 4185, 6952, 8965, 10058, 11415, 12257, 13067, 16077, 17139, 18398], ""path"": [1, 4, 8, 15], ""trialID"": 0, ""clicks"": [""2"", ""3"", ""4"", ""5"", ""9"", ""16"", ""17"", ""7"", ""12"", ""13"", ""8"", ""14"", ""15""], ""condition"": 1}"
A12X43VFAKMR89:36ZN444YTRY64U2AHH985MYYXS3IOF,31,1493673451615,"{""rt"": [13341, 93, 24], ""trial_type"": ""graph"", ""infoCost"": 0.1, ""feedback"": false, ""minTime"": 45, ""delays"": [8, 0, 1], ""actionTimes"": [13342, 14702, 15961], ""time_elapsed"": 2217475, ""actions"": [""up"", ""up"", ""left""], ""trialIndex"": 4, ""score"": 36.3, ""trial_index"": 31, ""internal_node_id"": ""0.0-5.0-3.0"", ""clickTimes"": [1882, 2759, 3497, 4351, 6446, 7764, 8809], ""path"": [1, 3, 7, 12], ""trialID"": 9, ""clicks"": [""4"", ""3"", ""2"", ""5"", ""7"", ""12"", ""13""], ""condition"": 1}"
A12X43VFAKMR89:36ZN444YTRY64U2AHH985MYYXS3IOF,32,1493673460057,"{""rt"": 7394, ""trial_type"": ""button-response"", ""button_pressed"": 0, ""stimulus"": ""<h1 id=\""thiscompletesthehit\"">This completes the HIT</h1>\n\n<p>One or your trials has been randomly selected and we will pay you 5% of\nyour profit on that trial as a bonus. You will be awarded a bonus of\n$1.66</p>"", ""internal_node_id"": ""0.0-6.0"", ""time_elapsed"": 2225917, ""trial_index"": 32}"
A13VIJ7G997ZCY:3NQL1CS15R8NKEQCMBHPM2MUJ3VYVY,0,1493666652157,"{""rt"": 7167, ""trial_type"": ""text"", ""internal_node_id"": ""0.0-0.0"", ""time_elapsed"": 7168, ""key_press"": 32, ""trial_index"": 0}"
A13VIJ7G997ZCY:3NQL1CS15R8NKEQCMBHPM2MUJ3VYVY,1,1493666719100,"{""rt"": 65941, ""trial_type"": ""instructions"", ""view_history"": ""[{\""page_index\"":0,\""viewing_time\"":31374},{\""page_index\"":1,\""viewing_time\"":22063},{\""page_index\"":2,\""viewing_time\"":12504}]"", ""internal_node_id"": ""0.0-1.0-0.0"", ""time_elapsed"": 74112, ""trial_index"": 1}"
A13VIJ7G997ZCY:3NQL1CS15R8NKEQCMBHPM2MUJ3VYVY,2,1493666779324,"{""rt"": 57259, ""trial_type"": ""survey-multi-choice"", ""responses"": ""[\""1\"",\""True\"",\""$0.10\"",\""As many or as few as I wish\"",\""My earnings for each round are equal to the <i>sum</i> of the values of all locations I visit (minus the cost of making observations), and I will be paid the earnings from one of the 12 rounds.\"",\""Whether I chose the move that was best according to the information I had.\""]"", ""internal_node_id"": ""0.0-1.0-1.0"", ""time_elapsed"": 134336, ""questions"": ""[\""How many flights are there per round?\"",\""True or false: The hidden values will change each time I start a new round.\"",\""How much does it cost to observe each hidden value?\"",\""How many hidden values am I allowed to observe in each round?\"",\""Which statement is TRUE?\"",\""What does the feedback teach me?\""]"", ""correct"": [false, true, true, true, true, false], ""trial_index"": 2}"
A13VIJ7G997ZCY:3NQL1CS15R8NKEQCMBHPM2MUJ3VYVY,3,1493666830892,"{""rt"": 50566, ""trial_type"": ""instructions"", ""view_history"": ""[{\""page_index\"":0,\""viewing_time\"":24549},{\""page_index\"":1,\""viewing_time\"":15152},{\""page_index\"":2,\""viewing_time\"":10865}]"", ""internal_node_id"": ""0.0-1.1-0.1"", ""time_elapsed"": 185904, ""trial_index"": 3}"
A13VIJ7G997ZCY:3NQL1CS15R8NKEQCMBHPM2MUJ3VYVY,4,1493666857108,"{""rt"": 23208, ""trial_type"": ""survey-multi-choice"", ""responses"": ""[\""3\"",\""True\"",\""$0.10\"",\""As many or as few as I wish\"",\""My earnings for each round are equal to the <i>sum</i> of the values of all locations I visit (minus the cost of making observations), and I will be paid the earnings from one of the 12 rounds.\"",\""Whether I chose the move that was best according to the information I had.\""]"", ""internal_node_id"": ""0.0-1.1-1.1"", ""time_elapsed"": 212120, ""questions"": ""[\""How many flights are there per round?\"",\""True or false: The hidden values will change each time I start a new round.\"",\""How much does it cost to observe each hidden value?\"",\""How many hidden values am I allowed to observe in each round?\"",\""Which statement is TRUE?\"",\""What does the feedback teach me?\""]"", ""correct"": [true, true, true, true, true, false], ""trial_index"": 4}"
A13VIJ7G997ZCY:3NQL1CS15R8NKEQCMBHPM2MUJ3VYVY,5,1493666883555,"{""rt"": 25446, ""trial_type"": ""instructions"", ""view_history"": ""[{\""page_index\"":0,\""viewing_time\"":7711},{\""page_index\"":1,\""viewing_time\"":10007},{\""page_index\"":2,\""viewing_time\"":7728}]"", ""internal_node_id"": ""0.0-1.2-0.2"", ""time_elapsed"": 238567, ""trial_index"": 5}"
A13VIJ7G997ZCY:3NQL1CS15R8NKEQCMBHPM2MUJ3VYVY,6,1493666895781,"{""rt"": 11209, ""trial_type"": ""survey-multi-choice"", ""responses"": ""[\""3\"",\""True\"",\""$0.10\"",\""As many or as few as I wish\"",\""My earnings for each round are equal to the <i>sum</i> of the values of all locations I visit (minus the cost of making observations), and I will be paid the earnings from one of the 12 rounds.\"",\""All of the above.\""]"", ""internal_node_id"": ""0.0-1.2-1.2"", ""time_elapsed"": 250793, ""questions"": ""[\""How many flights are there per round?\"",\""True or false: The hidden values will change each time I start a new round.\"",\""How much does it cost to observe each hidden value?\"",\""How many hidden values am I allowed to observe in each round?\"",\""Which statement is TRUE?\"",\""What does the feedback teach me?\""]"", ""correct"": [true, true, true, true, true, true], ""trial_index"": 6}"
A13VIJ7G997ZCY:3NQL1CS15R8NKEQCMBHPM2MUJ3VYVY,7,1493666952646,"{""rt"": [20899, 525, 13970], ""trial_type"": ""graph"", ""infoCost"": 0.1, ""feedback"": true, ""minTime"": 45, ""delays"": [8, 0, 1], ""actionTimes"": [20899, 30174, 44933], ""time_elapsed"": 307658, ""actions"": [""left"", ""left"", ""up""], ""trialIndex"": 1, ""score"": 32.8, ""trial_index"": 7, ""internal_node_id"": ""0.0-2.0-0.0"", ""clickTimes"": [1873, 3825, 4745, 5326, 6220, 7396, 8925, 9436, 14029, 14822, 18764, 19279], ""path"": [1, 4, 8, 14], ""trialID"": 5, ""clicks"": [""3"", ""4"", ""5"", ""2"", ""7"", ""8"", ""14"", ""15"", ""9"", ""6"", ""10"", ""11""], ""condition"": 1}"
A13VIJ7G997ZCY:3NQL1CS15R8NKEQCMBHPM2MUJ3VYVY,8,1493667020044,"{""rt"": [14383, 456, 8947], ""trial_type"": ""graph"", ""infoCost"": 0.1, ""feedback"": true, ""minTime"": 45, ""delays"": [8, 0, 1], ""actionTimes"": [14383, 23462, 33128], ""time_elapsed"": 375055, ""actions"": [""right"", ""right"", ""down""], ""trialIndex"": 2, ""score"": 36.6, ""trial_index"": 8, ""internal_node_id"": ""0.0-2.0-1.0"", ""clickTimes"": [959, 1746, 2449, 3159, 4056, 4721, 5825, 6369, 7860, 8467, 10113, 11231, 12690, 13159], ""path"": [1, 2, 6, 11], ""trialID"": 6, ""clicks"": [""4"", ""3"", ""2"", ""5"", ""7"", ""9"", ""17"", ""16"", ""13"", ""12"", ""8"", ""6"", ""10"", ""11""], ""condition"": 1}"
A13VIJ7G997ZCY:3NQL1CS15R8NKEQCMBHPM2MUJ3VYVY,9,1493667098374,"{""rt"": [16205, 8274, 7541], ""trial_type"": ""graph"", ""infoCost"": 0.1, ""feedback"": true, ""minTime"": 45, ""delays"": [8, 0, 1], ""actionTimes"": [16205, 33212, 41493], ""time_elapsed"": 453385, ""actions"": [""up"", ""up"", ""left""], ""trialIndex"": 3, ""score"": 35.9, ""trial_index"": 9, ""internal_node_id"": ""0.0-2.0-2.0"", ""clickTimes"": [1357, 1944, 2544, 3062, 3941, 4631, 5647, 6176, 7079, 7727, 13368], ""path"": [1, 3, 7, 12], ""trialID"": 9, ""clicks"": [""3"", ""4"", ""5"", ""2"", ""7"", ""8"", ""14"", ""15"", ""12"", ""13"", ""9""], ""condition"": 1}"
A13VIJ7G997ZCY:3NQL1CS15R8NKEQCMBHPM2MUJ3VYVY,10,1493667156005,"{""rt"": [17556, 475, 6272], ""trial_type"": ""graph"", ""infoCost"": 0.1, ""feedback"": true, ""minTime"": 45, ""delays"": [8, 0, 1], ""actionTimes"": [17556, 26740, 33780], ""time_elapsed"": 511017, ""actions"": [""right"", ""right"", ""down""], ""trialIndex"": 4, ""score"": 36.9, ""trial_index"": 10, ""internal_node_id"": ""0.0-2.0-3.0"", ""clickTimes"": [4798, 5422, 5964, 6471, 7333, 9469, 10092, 11350, 14080, 14742, 15452], ""path"": [1, 2, 6, 11], ""trialID"": 11, ""clicks"": [""3"", ""4"", ""5"", ""2"", ""6"", ""10"", ""11"", ""7"", ""13"", ""12"", ""9""], ""condition"": 1}"
A13VIJ7G997ZCY:3NQL1CS15R8NKEQCMBHPM2MUJ3VYVY,11,1493667215030,"{""rt"": [21182, 542, 829], ""trial_type"": ""graph"", ""infoCost"": 0.1, ""feedback"": true, ""minTime"": 45, ""delays"": [8, 0, 1], ""actionTimes"": [21182, 30357, 31892], ""time_elapsed"": 570041, ""actions"": [""left"", ""left"", ""down""], ""trialIndex"": 5, ""score"": 38.7, ""trial_index"": 11, ""internal_node_id"": ""0.0-2.0-4.0"", ""clickTimes"": [5848, 6316, 6824, 7286, 7917, 8624, 9583, 10039, 10935, 11473, 12775, 14458, 15485], ""path"": [1, 4, 8, 15], ""trialID"": 0, ""clicks"": [""4"", ""5"", ""2"", ""3"", ""9"", ""7"", ""12"", ""13"", ""16"", ""17"", ""8"", ""14"", ""15""], ""condition"": 1}"
A13VIJ7G997ZCY:3NQL1CS15R8NKEQCMBHPM2MUJ3VYVY,12,1493667272172,"{""rt"": [18241, 459, 445], ""trial_type"": ""graph"", ""infoCost"": 0.1, ""feedback"": true, ""minTime"": 45, ""delays"": [8, 0, 1], ""actionTimes"": [18241, 27336, 28498], ""time_elapsed"": 627184, ""actions"": [""right"", ""right"", ""up""], ""trialIndex"": 6, ""score"": 32.6, ""trial_index"": 12, ""internal_node_id"": ""0.0-2.0-5.0"", ""clickTimes"": [1475, 2025, 2865, 3368, 4016, 4700, 5296, 6849, 7523, 8196, 9011, 13051, 14323, 14880], ""path"": [1, 2, 6, 10], ""trialID"": 3, ""clicks"": [""2"", ""3"", ""4"", ""5"", ""9"", ""6"", ""7"", ""11"", ""10"", ""17"", ""16"", ""8"", ""14"", ""15""], ""condition"": 1}"
A13VIJ7G997ZCY:3NQL1CS15R8NKEQCMBHPM2MUJ3VYVY,13,1493667328710,"{""rt"": [9782, 492, 1], ""trial_type"": ""graph"", ""infoCost"": 0.1, ""feedback"": true, ""minTime"": 45, ""delays"": [8, 0, 1], ""actionTimes"": [9782, 19015, 19821], ""time_elapsed"": 683722, ""actions"": [""right"", ""right"", ""up""], ""trialIndex"": 7, ""score"": 32.9, ""trial_index"": 13, ""internal_node_id"": ""0.0-2.0-6.0"", ""clickTimes"": [942, 1457, 1887, 2471, 3161, 3855, 4559, 5918, 6937, 7511, 8214], ""path"": [1, 2, 6, 10], ""trialID"": 2, ""clicks"": [""3"", ""4"", ""5"", ""2"", ""8"", ""6"", ""9"", ""14"", ""11"", ""10"", ""15""], ""condition"": 1}"
A13VIJ7G997ZCY:3NQL1CS15R8NKEQCMBHPM2MUJ3VYVY,14,1493667386595,"{""rt"": [14395, 473, 131], ""trial_type"": ""graph"", ""infoCost"": 0.1, ""feedback"": true, ""minTime"": 45, ""delays"": [8, 0, 1], ""actionTimes"": [14395, 23587, 24491], ""time_elapsed"": 741607, ""actions"": [""down"", ""down"", ""right""], ""trialIndex"": 8, ""score"": 40.8, ""trial_index"": 14, ""internal_node_id"": ""0.0-2.0-7.0"", ""clickTimes"": [1230, 1884, 2343, 2830, 3405, 4308, 5395, 5915, 6455, 7020, 8411, 11401], ""path"": [1, 5, 9, 17], ""trialID"": 4, ""clicks"": [""3"", ""4"", ""5"", ""2"", ""8"", ""9"", ""14"", ""15"", ""16"", ""17"", ""7"", ""6""], ""condition"": 1}"
A13VIJ7G997ZCY:3NQL1CS15R8NKEQCMBHPM2MUJ3VYVY,15,1493667989667,"{""rt"": 602051, ""trial_type"": ""delay"", ""time_elapsed"": 1344679, ""internal_node_id"": ""0.0-3.0"", ""trial_index"": 15}"
A13VIJ7G997ZCY:3NQL1CS15R8NKEQCMBHPM2MUJ3VYVY,16,1493668045587,"{""rt"": [11635, 1202, 2], ""trial_type"": ""graph"", ""infoCost"": 0.1, ""feedback"": false, ""minTime"": 45, ""delays"": [8, 0, 1], ""actionTimes"": [11635, 13576, 14407], ""time_elapsed"": 1400599, ""actions"": [""down"", ""down"", ""left""], ""trialIndex"": 1, ""score"": 44.9, ""trial_index"": 16, ""internal_node_id"": ""0.0-5.0-0.0"", ""clickTimes"": [873, 1347, 1787, 2250, 2897, 3883, 5201, 5729, 6418, 6970, 8392], ""path"": [1, 5, 9, 16], ""trialID"": 1, ""clicks"": [""3"", ""4"", ""5"", ""2"", ""7"", ""9"", ""12"", ""13"", ""16"", ""17"", ""8""], ""condition"": 1}"
A13VIJ7G997ZCY:3NQL1CS15R8NKEQCMBHPM2MUJ3VYVY,17,1493668092941,"{""rt"": [12412, 404, 12], ""trial_type"": ""graph"", ""infoCost"": 0.1, ""feedback"": false, ""minTime"": 45, ""delays"": [8, 0, 1], ""actionTimes"": [12412, 13421, 14179], ""time_elapsed"": 1447953, ""actions"": [""right"", ""right"", ""up""], ""trialIndex"": 2, ""score"": 20.6, ""trial_index"": 17, ""internal_node_id"": ""0.0-5.0-1.0"", ""clickTimes"": [653, 1100, 1582, 2023, 2582, 3263, 3853, 5008, 5541, 6276, 6909, 7718, 10029, 10894], ""path"": [1, 2, 6, 10], ""trialID"": 10, ""clicks"": [""3"", ""4"", ""5"", ""2"", ""6"", ""7"", ""8"", ""12"", ""13"", ""10"", ""11"", ""9"", ""16"", ""17""], ""condition"": 1}"
A13VIJ7G997ZCY:3NQL1CS15R8NKEQCMBHPM2MUJ3VYVY,18,1493668146947,"{""rt"": [18630, 151, 166], ""trial_type"": ""graph"", ""infoCost"": 0.1, ""feedback"": false, ""minTime"": 45, ""delays"": [8, 0, 1], ""actionTimes"": [18630, 19437, 20333], ""time_elapsed"": 1501959, ""actions"": [""up"", ""up"", ""left""], ""trialIndex"": 3, ""score"": 39.7, ""trial_index"": 18, ""internal_node_id"": ""0.0-5.0-2.0"", ""clickTimes"": [1496, 1993, 2456, 2888, 3504, 4175, 4933, 6015, 6544, 7661, 8237, 8864, 9389], ""path"": [1, 3, 7, 12], ""trialID"": 8, ""clicks"": [""2"", ""3"", ""4"", ""5"", ""7"", ""9"", ""8"", ""16"", ""17"", ""15"", ""14"", ""12"", ""13""], ""condition"": 1}"
A13VIJ7G997ZCY:3NQL1CS15R8NKEQCMBHPM2MUJ3VYVY,19,1493668205173,"{""rt"": [11070, 193, 1], ""trial_type"": ""graph"", ""infoCost"": 0.1, ""feedback"": false, ""minTime"": 45, ""delays"": [8, 0, 1], ""actionTimes"": [11070, 11863, 12590], ""time_elapsed"": 1560185, ""actions"": [""down"", ""down"", ""right""], ""trialIndex"": 4, ""score"": 32.7, ""trial_index"": 19, ""internal_node_id"": ""0.0-5.0-3.0"", ""clickTimes"": [530, 1025, 1488, 2033, 2550, 3120, 4031, 5856, 6438, 7126, 7664, 8353, 8849], ""path"": [1, 5, 9, 17], ""trialID"": 7, ""clicks"": [""3"", ""4"", ""5"", ""2"", ""7"", ""6"", ""9"", ""17"", ""16"", ""11"", ""10"", ""13"", ""12""], ""condition"": 1}"
A13VIJ7G997ZCY:3NQL1CS15R8NKEQCMBHPM2MUJ3VYVY,20,1493668209035,"{""rt"": 2848, ""trial_type"": ""button-response"", ""button_pressed"": 0, ""stimulus"": ""<h1 id=\""thiscompletesthehit\"">This completes the HIT</h1>\n\n<p>One or your trials has been randomly selected and we will pay you 5% of\nyour profit on that trial as a bonus. You will be awarded a bonus of\n$1.83</p>"", ""internal_node_id"": ""0.0-6.0"", ""time_elapsed"": 1564047, ""trial_index"": 20}"
A15340BRCER2UO:3Y5140Z9DXGOPUEBWHMNUM3O7XZIPW,0,1493671256133,"{""rt"": 1192, ""trial_type"": ""text"", ""internal_node_id"": ""0.0-0.0"", ""time_elapsed"": 1194, ""key_press"": 32, ""trial_index"": 0}"
A15340BRCER2UO:3Y5140Z9DXGOPUEBWHMNUM3O7XZIPW,1,1493671266712,"{""rt"": 9576, ""trial_type"": ""instructions"", ""view_history"": ""[{\""page_index\"":0,\""viewing_time\"":2889},{\""page_index\"":1,\""viewing_time\"":4945},{\""page_index\"":2,\""viewing_time\"":1739}]"", ""internal_node_id"": ""0.0-1.0-0.0"", ""time_elapsed"": 11773, ""trial_index"": 1}"
A15340BRCER2UO:3Y5140Z9DXGOPUEBWHMNUM3O7XZIPW,2,1493671293217,"{""rt"": 23286, ""trial_type"": ""survey-multi-choice"", ""responses"": ""[\""4\"",\""True\"",\""$0.50\"",\""As many or as few as I wish\"",\""My earnings for each round are equal to the value of one of the locations I visit (minus the cost of making observations), and I will actually be paid the earnings from one of the 12 rounds.\""]"", ""internal_node_id"": ""0.0-1.0-1.0"", ""time_elapsed"": 38278, ""questions"": ""[\""How many flights are there per round?\"",\""True or false: The hidden values will change each time I start a new round.\"",\""How much does it cost to observe each hidden value?\"",\""How many hidden values am I allowed to observe in each round?\"",\""Which statement is TRUE?\""]"", ""correct"": [false, true, false, true, false], ""trial_index"": 2}"
A15340BRCER2UO:3Y5140Z9DXGOPUEBWHMNUM3O7XZIPW,3,1493671333772,"{""rt"": 39551, ""trial_type"": ""instructions"", ""view_history"": ""[{\""page_index\"":0,\""viewing_time\"":6727},{\""page_index\"":1,\""viewing_time\"":12760},{\""page_index\"":2,\""viewing_time\"":9164},{\""page_index\"":1,\""viewing_time\"":9460},{\""page_index\"":2,\""viewing_time\"":1439}]"", ""internal_node_id"": ""0.0-1.1-0.1"", ""time_elapsed"": 78833, ""trial_index"": 3}"
A15340BRCER2UO:3Y5140Z9DXGOPUEBWHMNUM3O7XZIPW,4,1493671367403,"{""rt"": 28250, ""trial_type"": ""survey-multi-choice"", ""responses"": ""[\""4\"",\""True\"",\""$0.10\"",\""As many or as few as I wish\"",\""My earnings for each round are equal to the <i>sum</i> of the values of all locations I visit (minus the cost of making observations), and I will be paid the earnings from one of the 12 rounds.\""]"", ""internal_node_id"": ""0.0-1.1-1.1"", ""time_elapsed"": 112464, ""questions"": ""[\""How many flights are there per round?\"",\""True or false: The hidden values will change each time I start a new round.\"",\""How much does it cost to observe each hidden value?\"",\""How many hidden values am I allowed to observe in each round?\"",\""Which statement is TRUE?\""]"", ""correct"": [false, true, true, true, true], ""trial_index"": 4}"
A15340BRCER2UO:3Y5140Z9DXGOPUEBWHMNUM3O7XZIPW,5,1493671422545,"{""rt"": 54140, ""trial_type"": ""instructions"", ""view_history"": ""[{\""page_index\"":0,\""viewing_time\"":20578},{\""page_index\"":1,\""viewing_time\"":25015},{\""page_index\"":2,\""viewing_time\"":8546}]"", ""internal_node_id"": ""0.0-1.2-0.2"", ""time_elapsed"": 167605, ""trial_index"": 5}"
A15340BRCER2UO:3Y5140Z9DXGOPUEBWHMNUM3O7XZIPW,6,1493671444688,"{""rt"": 19370, ""trial_type"": ""survey-multi-choice"", ""responses"": ""[\""1\"",\""True\"",\""$0.10\"",\""As many or as few as I wish\"",\""My earnings for each round are equal to the <i>sum</i> of the values of all locations I visit (minus the cost of making observations), and I will be paid the earnings from one of the 12 rounds.\""]"", ""internal_node_id"": ""0.0-1.2-1.2"", ""time_elapsed"": 189749, ""questions"": ""[\""How many flights are there per round?\"",\""True or false: The hidden values will change each time I start a new round.\"",\""How much does it cost to observe each hidden value?\"",\""How many hidden values am I allowed to observe in each round?\"",\""Which statement is TRUE?\""]"", ""correct"": [false, true, true, true, true], ""trial_index"": 6}"
A15340BRCER2UO:3Y5140Z9DXGOPUEBWHMNUM3O7XZIPW,7,1493671471687,"{""rt"": 25997, ""trial_type"": ""instructions"", ""view_history"": ""[{\""page_index\"":0,\""viewing_time\"":24042},{\""page_index\"":1,\""viewing_time\"":1092},{\""page_index\"":2,\""viewing_time\"":861}]"", ""internal_node_id"": ""0.0-1.3-0.3"", ""time_elapsed"": 216747, ""trial_index"": 7}"
A15340BRCER2UO:3Y5140Z9DXGOPUEBWHMNUM3O7XZIPW,8,1493671484243,"{""rt"": 11540, ""trial_type"": ""survey-multi-choice"", ""responses"": ""[\""3\"",\""True\"",\""$0.10\"",\""As many or as few as I wish\"",\""My earnings for each round are equal to the <i>sum</i> of the values of all locations I visit (minus the cost of making observations), and I will be paid the earnings from one of the 12 rounds.\""]"", ""internal_node_id"": ""0.0-1.3-1.3"", ""time_elapsed"": 229304, ""questions"": ""[\""How many flights are there per round?\"",\""True or false: The hidden values will change each time I start a new round.\"",\""How much does it cost to observe each hidden value?\"",\""How many hidden values am I allowed to observe in each round?\"",\""Which statement is TRUE?\""]"", ""correct"": [true, true, true, true, true], ""trial_index"": 8}"
A154B3Q5DTHN7:3ZPPDN2SLVWRH2WIJ90ZNH5HAZ8E9K,0,1493666421178,"{""rt"": 9328, ""trial_type"": ""text"", ""internal_node_id"": ""0.0-0.0"", ""time_elapsed"": 9336, ""key_press"": 32, ""trial_index"": 0}"
A154B3Q5DTHN7:3ZPPDN2SLVWRH2WIJ90ZNH5HAZ8E9K,1,1493666547167,"{""rt"": 124983, ""trial_type"": ""instructions"", ""view_history"": ""[{\""page_index\"":0,\""viewing_time\"":50876},{\""page_index\"":1,\""viewing_time\"":46835},{\""page_index\"":2,\""viewing_time\"":27268}]"", ""internal_node_id"": ""0.0-1.0-0.0"", ""time_elapsed"": 135325, ""trial_index"": 1}"
A154B3Q5DTHN7:3ZPPDN2SLVWRH2WIJ90ZNH5HAZ8E9K,2,1493666624924,"{""rt"": 71353, ""trial_type"": ""survey-multi-choice"", ""responses"": ""[\""1\"",\""True\"",\""$0.00\"",\""As many or as few as I wish\"",\""My earnings for each round are equal to the <i>sum</i> of the values of all locations I visit (minus the cost of making observations), and I will be paid the earnings from one of the 12 rounds.\""]"", ""internal_node_id"": ""0.0-1.0-1.0"", ""time_elapsed"": 213082, ""questions"": ""[\""How many flights are there per round?\"",\""True or false: The hidden values will change each time I start a new round.\"",\""How much does it cost to observe each hidden value?\"",\""How many hidden values am I allowed to observe in each round?\"",\""Which statement is TRUE?\""]"", ""correct"": [false, true, false, true, true], ""trial_index"": 2}"
A154B3Q5DTHN7:3ZPPDN2SLVWRH2WIJ90ZNH5HAZ8E9K,3,1493666673257,"{""rt"": 47321, ""trial_type"": ""instructions"", ""view_history"": ""[{\""page_index\"":0,\""viewing_time\"":31617},{\""page_index\"":1,\""viewing_time\"":11565},{\""page_index\"":2,\""viewing_time\"":4135}]"", ""internal_node_id"": ""0.0-1.1-0.1"", ""time_elapsed"": 261415, ""trial_index"": 3}"
A154B3Q5DTHN7:3ZPPDN2SLVWRH2WIJ90ZNH5HAZ8E9K,4,1493666727905,"{""rt"": 47591, ""trial_type"": ""survey-multi-choice"", ""responses"": ""[\""1\"",\""True\"",\""$0.10\"",\""As many or as few as I wish\"",\""My earnings for each round are equal to the <i>sum</i> of the values of all locations I visit (minus the cost of making observations), and I will be paid the earnings from one of the 12 rounds.\""]"", ""internal_node_id"": ""0.0-1.1-1.1"", ""time_elapsed"": 316063, ""questions"": ""[\""How many flights are there per round?\"",\""True or false: The hidden values will change each time I start a new round.\"",\""How much does it cost to observe each hidden value?\"",\""How many hidden values am I allowed to observe in each round?\"",\""Which statement is TRUE?\""]"", ""correct"": [false, true, true, true, true], ""trial_index"": 4}"
A154B3Q5DTHN7:3ZPPDN2SLVWRH2WIJ90ZNH5HAZ8E9K,5,1493666819591,"{""rt"": 90677, ""trial_type"": ""instructions"", ""view_history"": ""[{\""page_index\"":0,\""viewing_time\"":25495},{\""page_index\"":1,\""viewing_time\"":40171},{\""page_index\"":2,\""viewing_time\"":25004}]"", ""internal_node_id"": ""0.0-1.2-0.2"", ""time_elapsed"": 407749, ""trial_index"": 5}"
A154B3Q5DTHN7:3ZPPDN2SLVWRH2WIJ90ZNH5HAZ8E9K,6,1493666872721,"{""rt"": 51956, ""trial_type"": ""survey-multi-choice"", ""responses"": ""[\""3\"",\""True\"",\""$0.10\"",\""As many or as few as I wish\"",\""My earnings for each round are equal to the <i>sum</i> of the values of all locations I visit (minus the cost of making observations), and I will be paid the earnings from one of the 12 rounds.\""]"", ""internal_node_id"": ""0.0-1.2-1.2"", ""time_elapsed"": 460879, ""questions"": ""[\""How many flights are there per round?\"",\""True or false: The hidden values will change each time I start a new round.\"",\""How much does it cost to observe each hidden value?\"",\""How many hidden values am I allowed to observe in each round?\"",\""Which statement is TRUE?\""]"", ""correct"": [true, true, true, true, true], ""trial_index"": 6}"
A154B3Q5DTHN7:3ZPPDN2SLVWRH2WIJ90ZNH5HAZ8E9K,7,1493666949785,"{""rt"": [9748, 2554, 12154], ""trial_type"": ""graph"", ""infoCost"": 0.1, ""feedback"": true, ""minTime"": 45, ""delays"": [8, 0, 1], ""actionTimes"": [9753, 22702, 37177], ""time_elapsed"": 537942, ""actions"": [""down"", ""down"", ""left""], ""trialIndex"": 1, ""score"": 2, ""trial_index"": 7, ""internal_node_id"": ""0.0-2.0-0.0"", ""clickTimes"": [], ""path"": [1, 5, 9, 16], ""trialID"": 9, ""clicks"": [], ""condition"": 0}"
A154B3Q5DTHN7:3ZPPDN2SLVWRH2WIJ90ZNH5HAZ8E9K,8,1493667012421,"{""rt"": [11677, 4037, 10806], ""trial_type"": ""graph"", ""infoCost"": 0.1, ""feedback"": true, ""minTime"": 45, ""delays"": [8, 0, 1], ""actionTimes"": [11678, 26305, 39338], ""time_elapsed"": 600580, ""actions"": [""up"", ""up"", ""right""], ""trialIndex"": 2, ""score"": 5, ""trial_index"": 8, ""internal_node_id"": ""0.0-2.0-1.0"", ""clickTimes"": [], ""path"": [1, 3, 7, 13], ""trialID"": 7, ""clicks"": [], ""condition"": 0}"
A154B3Q5DTHN7:3ZPPDN2SLVWRH2WIJ90ZNH5HAZ8E9K,9,1493667079032,"{""rt"": [4513, 13425, 18466], ""trial_type"": ""graph"", ""infoCost"": 0.1, ""feedback"": true, ""minTime"": 45, ""delays"": [8, 0, 1], ""actionTimes"": [4516, 28208, 49180], ""time_elapsed"": 667191, ""actions"": [""left"", ""left"", ""up""], ""trialIndex"": 3, ""score"": 10, ""trial_index"": 9, ""internal_node_id"": ""0.0-2.0-2.0"", ""clickTimes"": [], ""path"": [1, 4, 8, 14], ""trialID"": 2, ""clicks"": [], ""condition"": 0}"
A154B3Q5DTHN7:3ZPPDN2SLVWRH2WIJ90ZNH5HAZ8E9K,10,1493667143225,"{""rt"": [7119, 16847, 9228], ""trial_type"": ""graph"", ""infoCost"": 0.1, ""feedback"": true, ""minTime"": 45, ""delays"": [8, 0, 1], ""actionTimes"": [7120, 34285, 45798], ""time_elapsed"": 731384, ""actions"": [""down"", ""down"", ""left""], ""trialIndex"": 4, ""score"": 6, ""trial_index"": 10, ""internal_node_id"": ""0.0-2.0-3.0"", ""clickTimes"": [], ""path"": [1, 5, 9, 16], ""trialID"": 3, ""clicks"": [], ""condition"": 0}"
A154B3Q5DTHN7:3ZPPDN2SLVWRH2WIJ90ZNH5HAZ8E9K,11,1493667205837,"{""rt"": [6422, 3216, 17512], ""trial_type"": ""graph"", ""infoCost"": 0.1, ""feedback"": true, ""minTime"": 45, ""delays"": [8, 0, 1], ""actionTimes"": [6423, 19913, 39712], ""time_elapsed"": 793996, ""actions"": [""right"", ""right"", ""down""], ""trialIndex"": 5, ""score"": 2, ""trial_index"": 11, ""internal_node_id"": ""0.0-2.0-4.0"", ""clickTimes"": [], ""path"": [1, 2, 6, 11], ""trialID"": 1, ""clicks"": [], ""condition"": 0}"
A154B3Q5DTHN7:3ZPPDN2SLVWRH2WIJ90ZNH5HAZ8E9K,12,1493667269011,"{""rt"": [5072, 6842, 16872], ""trial_type"": ""graph"", ""infoCost"": 0.1, ""feedback"": true, ""minTime"": 45, ""delays"": [8, 0, 1], ""actionTimes"": [5073, 22264, 41368], ""time_elapsed"": 857169, ""actions"": [""up"", ""up"", ""right""], ""trialIndex"": 6, ""score"": 35, ""trial_index"": 12, ""internal_node_id"": ""0.0-2.0-5.0"", ""clickTimes"": [], ""path"": [1, 3, 7, 13], ""trialID"": 8, ""clicks"": [], ""condition"": 0}"
A154B3Q5DTHN7:3ZPPDN2SLVWRH2WIJ90ZNH5HAZ8E9K,13,1493667332871,"{""rt"": [2921, 12297, 19862], ""trial_type"": ""graph"", ""infoCost"": 0.1, ""feedback"": true, ""minTime"": 45, ""delays"": [8, 0, 1], ""actionTimes"": [2924, 25367, 47636], ""time_elapsed"": 921030, ""actions"": [""left"", ""left"", ""down""], ""trialIndex"": 7, ""score"": 4, ""trial_index"": 13, ""internal_node_id"": ""0.0-2.0-6.0"", ""clickTimes"": [], ""path"": [1, 4, 8, 15], ""trialID"": 5, ""clicks"": [], ""condition"": 0}"
A154B3Q5DTHN7:3ZPPDN2SLVWRH2WIJ90ZNH5HAZ8E9K,14,1493667395700,"{""rt"": [5331, 3282, 20345], ""trial_type"": ""graph"", ""infoCost"": 0.1, ""feedback"": true, ""minTime"": 45, ""delays"": [8, 0, 1], ""actionTimes"": [5333, 18984, 41433], ""time_elapsed"": 983859, ""actions"": [""right"", ""right"", ""up""], ""trialIndex"": 8, ""score"": 22, ""trial_index"": 14, ""internal_node_id"": ""0.0-2.0-7.0"", ""clickTimes"": [], ""path"": [1, 2, 6, 10], ""trialID"": 10, ""clicks"": [], ""condition"": 0}"
A154B3Q5DTHN7:3ZPPDN2SLVWRH2WIJ90ZNH5HAZ8E9K,15,1493667401581,"{""rt"": 4732, ""trial_type"": ""text"", ""internal_node_id"": ""0.0-3.0"", ""time_elapsed"": 989740, ""key_press"": 32, ""trial_index"": 15}"
A154B3Q5DTHN7:3ZPPDN2SLVWRH2WIJ90ZNH5HAZ8E9K,16,1493667453427,"{""rt"": [8056, 11704, 12673], ""trial_type"": ""graph"", ""infoCost"": 0.1, ""feedback"": false, ""minTime"": 45, ""delays"": [8, 0, 1], ""actionTimes"": [8057, 22158, 37030], ""time_elapsed"": 1041586, ""actions"": [""left"", ""left"", ""up""], ""trialIndex"": 1, ""score"": 16, ""trial_index"": 16, ""internal_node_id"": ""0.0-5.0-0.0"", ""clickTimes"": [], ""path"": [1, 4, 8, 14], ""trialID"": 4, ""clicks"": [], ""condition"": 0}"
A154B3Q5DTHN7:3ZPPDN2SLVWRH2WIJ90ZNH5HAZ8E9K,17,1493667506750,"{""rt"": [4839, 10629, 25579], ""trial_type"": ""graph"", ""infoCost"": 0.1, ""feedback"": false, ""minTime"": 45, ""delays"": [8, 0, 1], ""actionTimes"": [4840, 17600, 45272], ""time_elapsed"": 1094908, ""actions"": [""down"", ""down"", ""left""], ""trialIndex"": 2, ""score"": 18, ""trial_index"": 17, ""internal_node_id"": ""0.0-5.0-1.0"", ""clickTimes"": [], ""path"": [1, 5, 9, 16], ""trialID"": 11, ""clicks"": [], ""condition"": 0}"
A154B3Q5DTHN7:3ZPPDN2SLVWRH2WIJ90ZNH5HAZ8E9K,18,1493667558995,"{""rt"": [2710, 18619, 16244], ""trial_type"": ""graph"", ""infoCost"": 0.1, ""feedback"": false, ""minTime"": 45, ""delays"": [8, 0, 1], ""actionTimes"": [2712, 23651, 41948], ""time_elapsed"": 1147154, ""actions"": [""up"", ""up"", ""left""], ""trialIndex"": 3, ""score"": -3, ""trial_index"": 18, ""internal_node_id"": ""0.0-5.0-2.0"", ""clickTimes"": [], ""path"": [1, 3, 7, 12], ""trialID"": 0, ""clicks"": [], ""condition"": 0}"
A154B3Q5DTHN7:3ZPPDN2SLVWRH2WIJ90ZNH5HAZ8E9K,19,1493667609031,"{""rt"": [1940, 13996, 16446], ""trial_type"": ""graph"", ""infoCost"": 0.1, ""feedback"": false, ""minTime"": 45, ""delays"": [8, 0, 1], ""actionTimes"": [1941, 18077, 36618], ""time_elapsed"": 1197190, ""actions"": [""left"", ""left"", ""up""], ""trialIndex"": 4, ""score"": 10, ""trial_index"": 19, ""internal_node_id"": ""0.0-5.0-3.0"", ""clickTimes"": [], ""path"": [1, 4, 8, 14], ""trialID"": 6, ""clicks"": [], ""condition"": 0}"
A154B3Q5DTHN7:3ZPPDN2SLVWRH2WIJ90ZNH5HAZ8E9K,20,1493667623653,"{""rt"": 13569, ""trial_type"": ""button-response"", ""button_pressed"": 0, ""stimulus"": ""<h1 id=\""thiscompletesthehit\"">This completes the HIT</h1>\n\n<p>One or your trials has been randomly selected and we will pay you 5% of\nyour profit on that trial as a bonus. You will be awarded a bonus of\n$0.10</p>"", ""internal_node_id"": ""0.0-6.0"", ""time_elapsed"": 1211809, ""trial_index"": 20}"
A1566PXUS5NDCA:3LEP4MGT3G05DPXFLY3B85IMYOCBD2,0,1493670122250,"{""rt"": 10177, ""trial_type"": ""text"", ""internal_node_id"": ""0.0-0.0"", ""time_elapsed"": 10183, ""key_press"": 32, ""trial_index"": 0}"
A1566PXUS5NDCA:3LEP4MGT3G05DPXFLY3B85IMYOCBD2,1,1493670262815,"{""rt"": 139549, ""trial_type"": ""instructions"", ""view_history"": ""[{\""page_index\"":0,\""viewing_time\"":46486},{\""page_index\"":1,\""viewing_time\"":45254},{\""page_index\"":2,\""viewing_time\"":21384},{\""page_index\"":3,\""viewing_time\"":26424}]"", ""internal_node_id"": ""0.0-1.0-0.0"", ""time_elapsed"": 150748, ""trial_index"": 1}"
A1566PXUS5NDCA:3LEP4MGT3G05DPXFLY3B85IMYOCBD2,2,1493670309393,"{""rt"": 42988, ""trial_type"": ""survey-multi-choice"", ""responses"": ""[\""1\"",\""True\"",\""$0.10\"",\""As many or as few as I wish\"",\""My earnings for each round are equal to the <i>sum</i> of the values of all locations I visit (minus the cost of making observations), and I will be paid the earnings from one of the 12 rounds.\"",\""All of the above.\""]"", ""internal_node_id"": ""0.0-1.0-1.0"", ""time_elapsed"": 197326, ""questions"": ""[\""How many flights are there per round?\"",\""True or false: The hidden values will change each time I start a new round.\"",\""How much does it cost to observe each hidden value?\"",\""How many hidden values am I allowed to observe in each round?\"",\""Which statement is TRUE?\"",\""What does the feedback teach me?\""]"", ""correct"": [false, true, true, true, true, true], ""trial_index"": 2}"
A1566PXUS5NDCA:3LEP4MGT3G05DPXFLY3B85IMYOCBD2,3,1493670345334,"{""rt"": 34923, ""trial_type"": ""instructions"", ""view_history"": ""[{\""page_index\"":0,\""viewing_time\"":10505},{\""page_index\"":1,\""viewing_time\"":6880},{\""page_index\"":2,\""viewing_time\"":12952},{\""page_index\"":3,\""viewing_time\"":4585}]"", ""internal_node_id"": ""0.0-1.1-0.1"", ""time_elapsed"": 233267, ""trial_index"": 3}"
A1566PXUS5NDCA:3LEP4MGT3G05DPXFLY3B85IMYOCBD2,4,1493670382839,"{""rt"": 34371, ""trial_type"": ""survey-multi-choice"", ""responses"": ""[\""1\"",\""True\"",\""$0.10\"",\""As many or as few as I wish\"",\""My earnings for each round are equal to the <i>sum</i> of the values of all locations I visit (minus the cost of making observations), and I will be paid the earnings from one of the 12 rounds.\"",\""Whether I chose the move that was best according to the information I had.\""]"", ""internal_node_id"": ""0.0-1.1-1.1"", ""time_elapsed"": 270772, ""questions"": ""[\""How many flights are there per round?\"",\""True or false: The hidden values will change each time I start a new round.\"",\""How much does it cost to observe each hidden value?\"",\""How many hidden values am I allowed to observe in each round?\"",\""Which statement is TRUE?\"",\""What does the feedback teach me?\""]"", ""correct"": [false, true, true, true, true, false], ""trial_index"": 4}"
A1566PXUS5NDCA:3LEP4MGT3G05DPXFLY3B85IMYOCBD2,5,1493670436262,"{""rt"": 52409, ""trial_type"": ""instructions"", ""view_history"": ""[{\""page_index\"":0,\""viewing_time\"":18415},{\""page_index\"":1,\""viewing_time\"":12673},{\""page_index\"":2,\""viewing_time\"":11735},{\""page_index\"":3,\""viewing_time\"":9585}]"", ""internal_node_id"": ""0.0-1.2-0.2"", ""time_elapsed"": 324195, ""trial_index"": 5}"
A1566PXUS5NDCA:3LEP4MGT3G05DPXFLY3B85IMYOCBD2,6,1493670497919,"{""rt"": 59240, ""trial_type"": ""survey-multi-choice"", ""responses"": ""[\""1\"",\""False\"",\""$0.10\"",\""As many or as few as I wish\"",\""My earnings for each round are equal to the <i>sum</i> of the values of all locations I visit (minus the cost of making observations), and I will be paid the earnings from one of the 12 rounds.\"",\""All of the above.\""]"", ""internal_node_id"": ""0.0-1.2-1.2"", ""time_elapsed"": 385852, ""questions"": ""[\""How many flights are there per round?\"",\""True or false: The hidden values will change each time I start a new round.\"",\""How much does it cost to observe each hidden value?\"",\""How many hidden values am I allowed to observe in each round?\"",\""Which statement is TRUE?\"",\""What does the feedback teach me?\""]"", ""correct"": [false, false, true, true, true, true], ""trial_index"": 6}"
A1566PXUS5NDCA:3LEP4MGT3G05DPXFLY3B85IMYOCBD2,7,1493670526222,"{""rt"": 27296, ""trial_type"": ""instructions"", ""view_history"": ""[{\""page_index\"":0,\""viewing_time\"":3895},{\""page_index\"":1,\""viewing_time\"":16208},{\""page_index\"":2,\""viewing_time\"":2823},{\""page_index\"":3,\""viewing_time\"":4369}]"", ""internal_node_id"": ""0.0-1.3-0.3"", ""time_elapsed"": 414155, ""trial_index"": 7}"
A1566PXUS5NDCA:3LEP4MGT3G05DPXFLY3B85IMYOCBD2,8,1493670545735,"{""rt"": 16991, ""trial_type"": ""survey-multi-choice"", ""responses"": ""[\""1\"",\""True\"",\""$0.10\"",\""As many or as few as I wish\"",\""My earnings for each round are equal to the value of one of the locations I visit (minus the cost of making observations), and I will actually be paid the earnings from one of the 12 rounds.\"",\""All of the above.\""]"", ""internal_node_id"": ""0.0-1.3-1.3"", ""time_elapsed"": 433668, ""questions"": ""[\""How many flights are there per round?\"",\""True or false: The hidden values will change each time I start a new round.\"",\""How much does it cost to observe each hidden value?\"",\""How many hidden values am I allowed to observe in each round?\"",\""Which statement is TRUE?\"",\""What does the feedback teach me?\""]"", ""correct"": [false, true, true, true, false, true], ""trial_index"": 8}"
A1566PXUS5NDCA:3LEP4MGT3G05DPXFLY3B85IMYOCBD2,9,1493670557438,"{""rt"": 10697, ""trial_type"": ""instructions"", ""view_history"": ""[{\""page_index\"":0,\""viewing_time\"":5735},{\""page_index\"":1,\""viewing_time\"":2017},{\""page_index\"":2,\""viewing_time\"":1488},{\""page_index\"":3,\""viewing_time\"":1456}]"", ""internal_node_id"": ""0.0-1.4-0.4"", ""time_elapsed"": 445371, ""trial_index"": 9}"
A1566PXUS5NDCA:3LEP4MGT3G05DPXFLY3B85IMYOCBD2,10,1493670586175,"{""rt"": 26464, ""trial_type"": ""survey-multi-choice"", ""responses"": ""[\""1\"",\""True\"",\""$0.10\"",\""As many or as few as I wish\"",\""My earnings for each round are equal to the <i>sum</i> of the values of all locations I visit (minus the cost of making observations), and I will be paid the earnings from one of the 12 rounds.\"",\""Whether I observed the rewards of relevant locations.\""]"", ""internal_node_id"": ""0.0-1.4-1.4"", ""time_elapsed"": 474107, ""questions"": ""[\""How many flights are there per round?\"",\""True or false: The hidden values will change each time I start a new round.\"",\""How much does it cost to observe each hidden value?\"",\""How many hidden values am I allowed to observe in each round?\"",\""Which statement is TRUE?\"",\""What does the feedback teach me?\""]"", ""correct"": [false, true, true, true, true, false], ""trial_index"": 10}"
A1566PXUS5NDCA:3LEP4MGT3G05DPXFLY3B85IMYOCBD2,11,1493670622422,"{""rt"": 35235, ""trial_type"": ""instructions"", ""view_history"": ""[{\""page_index\"":0,\""viewing_time\"":2058},{\""page_index\"":1,\""viewing_time\"":1496},{\""page_index\"":2,\""viewing_time\"":23480},{\""page_index\"":3,\""viewing_time\"":8200}]"", ""internal_node_id"": ""0.0-1.5-0.5"", ""time_elapsed"": 510355, ""trial_index"": 11}"
A1566PXUS5NDCA:3LEP4MGT3G05DPXFLY3B85IMYOCBD2,12,1493670639593,"{""rt"": 16138, ""trial_type"": ""survey-multi-choice"", ""responses"": ""[\""3\"",\""True\"",\""$0.10\"",\""As many or as few as I wish\"",\""My earnings for each round are equal to the <i>sum</i> of the values of all locations I visit (minus the cost of making observations), and I will be paid the earnings from one of the 12 rounds.\"",\""All of the above.\""]"", ""internal_node_id"": ""0.0-1.5-1.5"", ""time_elapsed"": 527526, ""questions"": ""[\""How many flights are there per round?\"",\""True or false: The hidden values will change each time I start a new round.\"",\""How much does it cost to observe each hidden value?\"",\""How many hidden values am I allowed to observe in each round?\"",\""Which statement is TRUE?\"",\""What does the feedback teach me?\""]"", ""correct"": [true, true, true, true, true, true], ""trial_index"": 12}"
A1566PXUS5NDCA:3LEP4MGT3G05DPXFLY3B85IMYOCBD2,13,1493670702715,"{""rt"": [27522, 197, 4], ""trial_type"": ""graph"", ""infoCost"": 0.1, ""feedback"": true, ""minTime"": 45, ""delays"": [0, 0, 0], ""actionTimes"": [27524, 28262, 29770], ""time_elapsed"": 590647, ""actions"": [""right"", ""right"", ""up""], ""trialIndex"": 1, ""score"": 32.4, ""trial_index"": 13, ""internal_node_id"": ""0.0-2.0-0.0"", ""clickTimes"": [4231, 5362, 5866, 6498, 7125, 7635, 8354, 8741, 9099, 9603, 10131, 10491, 10827, 11268, 11885, 12362], ""path"": [1, 2, 6, 10], ""trialID"": 3, ""clicks"": [""3"", ""7"", ""12"", ""13"", ""10"", ""2"", ""14"", ""8"", ""15"", ""4"", ""16"", ""9"", ""5"", ""17"", ""11"", ""6""], ""condition"": 3}"
A1566PXUS5NDCA:3LEP4MGT3G05DPXFLY3B85IMYOCBD2,14,1493670753516,"{""rt"": [20099, 137, 3], ""trial_type"": ""graph"", ""infoCost"": 0.1, ""feedback"": true, ""minTime"": 45, ""delays"": [0, 0, 0], ""actionTimes"": [20100, 20783, 22326], ""time_elapsed"": 641449, ""actions"": [""down"", ""down"", ""right""], ""trialIndex"": 2, ""score"": 40.4, ""trial_index"": 14, ""internal_node_id"": ""0.0-2.0-1.0"", ""clickTimes"": [2031, 2383, 2935, 3334, 3943, 4326, 4687, 4999, 5630, 5910, 6406, 6871, 7511, 7799, 8144, 8462], ""path"": [1, 5, 9, 17], ""trialID"": 4, ""clicks"": [""7"", ""3"", ""12"", ""13"", ""10"", ""2"", ""6"", ""11"", ""17"", ""9"", ""5"", ""16"", ""15"", ""8"", ""4"", ""14""], ""condition"": 3}"
A1566PXUS5NDCA:3LEP4MGT3G05DPXFLY3B85IMYOCBD2,15,1493670801741,"{""rt"": [16457, 1178, 2], ""trial_type"": ""graph"", ""infoCost"": 0.1, ""feedback"": true, ""minTime"": 45, ""delays"": [0, 0, 0], ""actionTimes"": [16457, 18175, 19698], ""time_elapsed"": 689674, ""actions"": [""right"", ""right"", ""down""], ""trialIndex"": 3, ""score"": 36.4, ""trial_index"": 15, ""internal_node_id"": ""0.0-2.0-2.0"", ""clickTimes"": [900, 1275, 1685, 2229, 2846, 3115, 3418, 3822, 4386, 4820, 5124, 5786, 6691, 7002, 7386, 7763], ""path"": [1, 2, 6, 11], ""trialID"": 11, ""clicks"": [""7"", ""3"", ""13"", ""12"", ""14"", ""8"", ""15"", ""4"", ""16"", ""9"", ""17"", ""5"", ""11"", ""6"", ""2"", ""10""], ""condition"": 3}"
A1566PXUS5NDCA:3LEP4MGT3G05DPXFLY3B85IMYOCBD2,16,1493670861517,"{""rt"": [18317, 116, 3], ""trial_type"": ""graph"", ""infoCost"": 0.1, ""feedback"": true, ""minTime"": 45, ""delays"": [0, 0, 0], ""actionTimes"": [18317, 18977, 20519], ""time_elapsed"": 749450, ""actions"": [""up"", ""up"", ""left""], ""trialIndex"": 4, ""score"": 39.4, ""trial_index"": 16, ""internal_node_id"": ""0.0-2.0-3.0"", ""clickTimes"": [823, 1221, 1641, 2085, 2566, 2886, 3686, 4150, 4641, 4966, 5277, 5713, 6447, 6741, 7094, 7504], ""path"": [1, 3, 7, 12], ""trialID"": 8, ""clicks"": [""12"", ""7"", ""13"", ""3"", ""2"", ""6"", ""10"", ""11"", ""17"", ""9"", ""16"", ""5"", ""15"", ""8"", ""4"", ""14""], ""condition"": 3}"
A1566PXUS5NDCA:3LEP4MGT3G05DPXFLY3B85IMYOCBD2,17,1493670924765,"{""rt"": [15791, 141, 2], ""trial_type"": ""graph"", ""infoCost"": 0.1, ""feedback"": true, ""minTime"": 45, ""delays"": [0, 0, 0], ""actionTimes"": [15791, 16448, 18011], ""time_elapsed"": 812698, ""actions"": [""left"", ""left"", ""down""], ""trialIndex"": 5, ""score"": 38.4, ""trial_index"": 17, ""internal_node_id"": ""0.0-2.0-4.0"", ""clickTimes"": [872, 1214, 1567, 2119, 2671, 2958, 3254, 4070, 4439, 4775, 5137, 5566, 6087, 6350, 6679, 7079], ""path"": [1, 4, 8, 15], ""trialID"": 0, ""clicks"": [""7"", ""3"", ""13"", ""12"", ""14"", ""8"", ""15"", ""4"", ""5"", ""9"", ""16"", ""17"", ""11"", ""6"", ""2"", ""10""], ""condition"": 3}"
A1566PXUS5NDCA:3LEP4MGT3G05DPXFLY3B85IMYOCBD2,18,1493670986581,"{""rt"": [21204, 68, 3], ""trial_type"": ""graph"", ""infoCost"": 0.1, ""feedback"": true, ""minTime"": 45, ""delays"": [0, 0, 0], ""actionTimes"": [21205, 21801, 23361], ""time_elapsed"": 874514, ""actions"": [""right"", ""right"", ""up""], ""trialIndex"": 6, ""score"": 20.4, ""trial_index"": 18, ""internal_node_id"": ""0.0-2.0-5.0"", ""clickTimes"": [1004, 1341, 1636, 2181, 2878, 3167, 3456, 3805, 4308, 4671, 4997, 5309, 5996, 6301, 6669, 6980], ""path"": [1, 2, 6, 10], ""trialID"": 10, ""clicks"": [""7"", ""3"", ""13"", ""12"", ""10"", ""6"", ""2"", ""11"", ""17"", ""9"", ""16"", ""5"", ""15"", ""8"", ""14"", ""4""], ""condition"": 3}"
A1566PXUS5NDCA:3LEP4MGT3G05DPXFLY3B85IMYOCBD2,19,1493671034735,"{""rt"": [11395, 124, 2], ""trial_type"": ""graph"", ""infoCost"": 0.1, ""feedback"": true, ""minTime"": 45, ""delays"": [0, 0, 0], ""actionTimes"": [11395, 12046, 13559], ""time_elapsed"": 922667, ""actions"": [""right"", ""right"", ""down""], ""trialIndex"": 7, ""score"": 36.4, ""trial_index"": 19, ""internal_node_id"": ""0.0-2.0-6.0"", ""clickTimes"": [888, 1199, 1727, 2207, 2785, 3104, 3416, 3879, 4506, 4807, 5191, 5648, 6360, 6655, 7007, 7552], ""path"": [1, 2, 6, 11], ""trialID"": 6, ""clicks"": [""7"", ""3"", ""13"", ""12"", ""4"", ""8"", ""15"", ""14"", ""5"", ""9"", ""16"", ""17"", ""11"", ""6"", ""2"", ""10""], ""condition"": 3}"
A1566PXUS5NDCA:3LEP4MGT3G05DPXFLY3B85IMYOCBD2,20,1493671084306,"{""rt"": [14023, 146, 3], ""trial_type"": ""graph"", ""infoCost"": 0.1, ""feedback"": true, ""minTime"": 45, ""delays"": [0, 0, 0], ""actionTimes"": [14023, 14704, 16239], ""time_elapsed"": 972239, ""actions"": [""left"", ""left"", ""up""], ""trialIndex"": 8, ""score"": 32.4, ""trial_index"": 20, ""internal_node_id"": ""0.0-2.0-7.0"", ""clickTimes"": [1228, 1612, 1948, 2349, 2934, 3235, 3531, 3971, 4507, 4787, 5100, 5517, 6067, 6541, 6860, 7244], ""path"": [1, 4, 8, 14], ""trialID"": 5, ""clicks"": [""12"", ""7"", ""3"", ""13"", ""10"", ""6"", ""11"", ""2"", ""17"", ""9"", ""16"", ""5"", ""15"", ""8"", ""4"", ""14""], ""condition"": 3}"
A1566PXUS5NDCA:3LEP4MGT3G05DPXFLY3B85IMYOCBD2,21,1493671699198,"{""rt"": 613876, ""trial_type"": ""delay"", ""time_elapsed"": 1587131, ""internal_node_id"": ""0.0-3.0"", ""trial_index"": 21}"
A1566PXUS5NDCA:3LEP4MGT3G05DPXFLY3B85IMYOCBD2,22,1493671703832,"{""rt"": 3630, ""trial_type"": ""text"", ""internal_node_id"": ""0.0-4.0-0.0"", ""time_elapsed"": 1591765, ""key_press"": 32, ""trial_index"": 22}"
A1566PXUS5NDCA:3LEP4MGT3G05DPXFLY3B85IMYOCBD2,23,1493671759074,"{""rt"": [17587, 91, 2], ""trial_type"": ""graph"", ""infoCost"": 0.1, ""feedback"": false, ""minTime"": 45, ""delays"": [0, 0, 0], ""actionTimes"": [17588, 18217, 19753], ""time_elapsed"": 1647007, ""actions"": [""down"", ""down"", ""left""], ""trialIndex"": 1, ""score"": 32.4, ""trial_index"": 23, ""internal_node_id"": ""0.0-5.0-0.0"", ""clickTimes"": [2340, 2803, 3292, 3917, 4562, 4966, 5285, 5698, 6546, 6861, 7314, 7715, 8431, 8797, 9173, 9626], ""path"": [1, 5, 9, 16], ""trialID"": 7, ""clicks"": [""3"", ""7"", ""13"", ""12"", ""14"", ""8"", ""15"", ""4"", ""17"", ""9"", ""16"", ""5"", ""11"", ""6"", ""2"", ""10""], ""condition"": 3}"
A1566PXUS5NDCA:3LEP4MGT3G05DPXFLY3B85IMYOCBD2,24,1493671816582,"{""rt"": [15011, 209, 4], ""trial_type"": ""graph"", ""infoCost"": 0.1, ""feedback"": false, ""minTime"": 45, ""delays"": [0, 0, 0], ""actionTimes"": [15012, 15749, 17269], ""time_elapsed"": 1704515, ""actions"": [""down"", ""down"", ""left""], ""trialIndex"": 2, ""score"": 44.4, ""trial_index"": 24, ""internal_node_id"": ""0.0-5.0-1.0"", ""clickTimes"": [769, 1105, 1466, 1899, 2433, 2745, 3067, 3506, 4032, 4329, 4630, 4968, 5587, 5881, 6209, 6593], ""path"": [1, 5, 9, 16], ""trialID"": 1, ""clicks"": [""12"", ""7"", ""13"", ""3"", ""2"", ""6"", ""10"", ""11"", ""17"", ""9"", ""16"", ""5"", ""15"", ""8"", ""4"", ""14""], ""condition"": 3}"
A1566PXUS5NDCA:3LEP4MGT3G05DPXFLY3B85IMYOCBD2,25,1493671875952,"{""rt"": [12811, 187, 3], ""trial_type"": ""graph"", ""infoCost"": 0.1, ""feedback"": false, ""minTime"": 45, ""delays"": [0, 0, 0], ""actionTimes"": [12812, 13537, 15061], ""time_elapsed"": 1763884, ""actions"": [""up"", ""up"", ""left""], ""trialIndex"": 3, ""score"": 35.4, ""trial_index"": 25, ""internal_node_id"": ""0.0-5.0-2.0"", ""clickTimes"": [524, 822, 1235, 1588, 2183, 2445, 2739, 3109, 3637, 3903, 4163, 4532, 5141, 5419, 6219, 6588], ""path"": [1, 3, 7, 12], ""trialID"": 9, ""clicks"": [""7"", ""3"", ""12"", ""13"", ""2"", ""6"", ""10"", ""11"", ""17"", ""9"", ""16"", ""5"", ""15"", ""8"", ""14"", ""4""], ""condition"": 3}"
A1566PXUS5NDCA:3LEP4MGT3G05DPXFLY3B85IMYOCBD2,26,1493671950650,"{""rt"": [18864, 222, 3], ""trial_type"": ""graph"", ""infoCost"": 0.1, ""feedback"": false, ""minTime"": 45, ""delays"": [0, 0, 0], ""actionTimes"": [18865, 19608, 21205], ""time_elapsed"": 1838583, ""actions"": [""right"", ""right"", ""up""], ""trialIndex"": 4, ""score"": 32.4, ""trial_index"": 26, ""internal_node_id"": ""0.0-5.0-3.0"", ""clickTimes"": [699, 1035, 2219, 2755, 3348, 3634, 3938, 4252, 4667, 4963, 5274, 5618, 6014, 6371, 6754, 7069], ""path"": [1, 2, 6, 10], ""trialID"": 2, ""clicks"": [""7"", ""3"", ""13"", ""12"", ""14"", ""8"", ""15"", ""4"", ""5"", ""9"", ""16"", ""17"", ""11"", ""6"", ""2"", ""10""], ""condition"": 3}"
A1566PXUS5NDCA:3LEP4MGT3G05DPXFLY3B85IMYOCBD2,27,1493671957977,"{""rt"": 6305, ""trial_type"": ""button-response"", ""button_pressed"": 0, ""stimulus"": ""<h1 id=\""thiscompletesthehit\"">This completes the HIT</h1>\n\n<p>One or your trials has been randomly selected and we will pay you 5% of\nyour profit on that trial as a bonus. You will be awarded a bonus of\n$1.92</p>"", ""internal_node_id"": ""0.0-6.0"", ""time_elapsed"": 1845910, ""trial_index"": 27}"
A15RJPRX0KVUFS:3MB8LZR5BFTP44P14SESQL9HURPKLD,0,1493675285101,"{""rt"": 19803, ""trial_type"": ""text"", ""internal_node_id"": ""0.0-0.0"", ""time_elapsed"": 19806, ""key_press"": 32, ""trial_index"": 0}"
A15RJPRX0KVUFS:3MB8LZR5BFTP44P14SESQL9HURPKLD,1,1493675359457,"{""rt"": 73349, ""trial_type"": ""instructions"", ""view_history"": ""[{\""page_index\"":0,\""viewing_time\"":7498},{\""page_index\"":1,\""viewing_time\"":47492},{\""page_index\"":2,\""viewing_time\"":18358}]"", ""internal_node_id"": ""0.0-1.0-0.0"", ""time_elapsed"": 94162, ""trial_index"": 1}"
A15RJPRX0KVUFS:3MB8LZR5BFTP44P14SESQL9HURPKLD,2,1493675403608,"{""rt"": 39299, ""trial_type"": ""survey-multi-choice"", ""responses"": ""[\""3\"",\""True\"",\""$0.10\"",\""As many or as few as I wish\"",\""My earnings for each round are equal to the <i>sum</i> of the values of all locations I visit (minus the cost of making observations), and I will be paid the earnings from one of the 12 rounds.\"",\""Whether I chose the move that was best according to the information I had.\""]"", ""internal_node_id"": ""0.0-1.0-1.0"", ""time_elapsed"": 138312, ""questions"": ""[\""How many flights are there per round?\"",\""True or false: The hidden values will change each time I start a new round.\"",\""How much does it cost to observe each hidden value?\"",\""How many hidden values am I allowed to observe in each round?\"",\""Which statement is TRUE?\"",\""What does the feedback teach me?\""]"", ""correct"": [true, true, true, true, true, false], ""trial_index"": 2}"
A15RJPRX0KVUFS:3MB8LZR5BFTP44P14SESQL9HURPKLD,3,1493675470092,"{""rt"": 65471, ""trial_type"": ""instructions"", ""view_history"": ""[{\""page_index\"":0,\""viewing_time\"":20106},{\""page_index\"":1,\""viewing_time\"":10745},{\""page_index\"":2,\""viewing_time\"":13789},{\""page_index\"":1,\""viewing_time\"":3505},{\""page_index\"":0,\""viewing_time\"":16216},{\""page_index\"":1,\""viewing_time\"":725},{\""page_index\"":2,\""viewing_time\"":384}]"", ""internal_node_id"": ""0.0-1.1-0.1"", ""time_elapsed"": 204797, ""trial_index"": 3}"
A15RJPRX0KVUFS:3MB8LZR5BFTP44P14SESQL9HURPKLD,4,1493675492400,"{""rt"": 19543, ""trial_type"": ""survey-multi-choice"", ""responses"": ""[\""4\"",\""True\"",\""$0.10\"",\""As many or as few as I wish\"",\""My earnings for each round are equal to the <i>sum</i> of the values of all locations I visit (minus the cost of making observations), and I will be paid the earnings from one of the 12 rounds.\"",\""Whether I chose the move that was best according to the information I had.\""]"", ""internal_node_id"": ""0.0-1.1-1.1"", ""time_elapsed"": 227105, ""questions"": ""[\""How many flights are there per round?\"",\""True or false: The hidden values will change each time I start a new round.\"",\""How much does it cost to observe each hidden value?\"",\""How many hidden values am I allowed to observe in each round?\"",\""Which statement is TRUE?\"",\""What does the feedback teach me?\""]"", ""correct"": [false, true, true, true, true, false], ""trial_index"": 4}"
A15RJPRX0KVUFS:3MB8LZR5BFTP44P14SESQL9HURPKLD,5,1493675581976,"{""rt"": 88565, ""trial_type"": ""instructions"", ""view_history"": ""[{\""page_index\"":0,\""viewing_time\"":40059},{\""page_index\"":1,\""viewing_time\"":20323},{\""page_index\"":2,\""viewing_time\"":28182}]"", ""internal_node_id"": ""0.0-1.2-0.2"", ""time_elapsed"": 316681, ""trial_index"": 5}"
