,correct,questions,responses,rt,time_elapsed,trial_type,worker_id,assignment_id,pid
1,"[False, True, True, True, True]","[""How many flights are there per round?"",""True or false: The hidden values will change each time I start a new round."",""How much does it cost to observe each hidden value?"",""How many hidden values am I allowed to observe in each round?"",""How is your bonus determined?""]","[""1"",""True"",""$1.60"",""As many or as few as I wish"",""5% of my score on a random round""]",20989,131159,survey-multi-choice,A12O9P1OTMJOPW,3W92K5RLWUHPIQGSB9CSB5O1OFUV5G,0
3,"[True, True, True, True, True]","[""How many flights are there per round?"",""True or false: The hidden values will change each time I start a new round."",""How much does it cost to observe each hidden value?"",""How many hidden values am I allowed to observe in each round?"",""How is your bonus determined?""]","[""3"",""True"",""$1.60"",""As many or as few as I wish"",""5% of my score on a random round""]",97527,285707,survey-multi-choice,A12O9P1OTMJOPW,3W92K5RLWUHPIQGSB9CSB5O1OFUV5G,0
14,"[True, True, True, True, True]","[""How many flights are there per round?"",""True or false: The hidden values will change each time I start a new round."",""How much does it cost to observe each hidden value?"",""How many hidden values am I allowed to observe in each round?"",""How is your bonus determined?""]","[""3"",""True"",""$1.60"",""As many or as few as I wish"",""5% of my score on a random round""]",27377,110930,survey-multi-choice,A1F7TXGSWETWX0,3GS6S824SQX6N4M35JDARO71M9WWNH,1
25,"[False, True, True, True, False]","[""How many flights are there per round?"",""True or false: The hidden values will change each time I start a new round."",""How much does it cost to observe each hidden value?"",""How many hidden values am I allowed to observe in each round?"",""How is your bonus determined?""]","[""1"",""True"",""$1.60"",""As many or as few as I wish"",""5% of my best score on any round""]",55602,219031,survey-multi-choice,A1GVMH6U54ZT8V,30OG32W0SUBC640CKJJ45I01F5RNES,2
27,"[False, True, True, True, True]","[""How many flights are there per round?"",""True or false: The hidden values will change each time I start a new round."",""How much does it cost to observe each hidden value?"",""How many hidden values am I allowed to observe in each round?"",""How is your bonus determined?""]","[""1"",""True"",""$1.60"",""As many or as few as I wish"",""5% of my score on a random round""]",18248,505920,survey-multi-choice,A1GVMH6U54ZT8V,30OG32W0SUBC640CKJJ45I01F5RNES,2
29,"[True, True, True, True, True]","[""How many flights are there per round?"",""True or false: The hidden values will change each time I start a new round."",""How much does it cost to observe each hidden value?"",""How many hidden values am I allowed to observe in each round?"",""How is your bonus determined?""]","[""3"",""True"",""$1.60"",""As many or as few as I wish"",""5% of my score on a random round""]",12684,556654,survey-multi-choice,A1GVMH6U54ZT8V,30OG32W0SUBC640CKJJ45I01F5RNES,2
40,"[True, True, True, True, True]","[""How many flights are there per round?"",""True or false: The hidden values will change each time I start a new round."",""How much does it cost to observe each hidden value?"",""How many hidden values am I allowed to observe in each round?"",""How is your bonus determined?""]","[""3"",""True"",""$1.60"",""As many or as few as I wish"",""5% of my score on a random round""]",87227,177754,survey-multi-choice,A1MV2B8I02QVOE,3LPW2N6LKT2P5BRS6J2NFJMIA7KU5N,3
51,"[True, True, True, False, False, False]","[""How many flights are there per round?"",""True or false: The hidden values will change each time I start a new round."",""How much does it cost to observe each hidden value?"",""How many hidden values am I allowed to observe in each round?"",""How is your bonus determined?"",""What does the feedback teach you?""]","[""3"",""True"",""$1.60"",""At most 10"",""10% of my total score on all rounds"",""The length of the delay is based on how much more money I could have earned by planning and deciding better.""]",8483,331400,survey-multi-choice,A1R3W25JDAUQ09,392CY0QWG1R201SSYXUZROSTGH34IN,4
53,"[False, True, True, True, False, True]","[""How many flights are there per round?"",""True or false: The hidden values will change each time I start a new round."",""How much does it cost to observe each hidden value?"",""How many hidden values am I allowed to observe in each round?"",""How is your bonus determined?"",""What does the feedback teach you?""]","[""4"",""True"",""$1.60"",""As many or as few as I wish"",""5% of my best score on any round"",""All of the above.""]",18903,380751,survey-multi-choice,A1R3W25JDAUQ09,392CY0QWG1R201SSYXUZROSTGH34IN,4
55,"[True, True, True, True, True, True]","[""How many flights are there per round?"",""True or false: The hidden values will change each time I start a new round."",""How much does it cost to observe each hidden value?"",""How many hidden values am I allowed to observe in each round?"",""How is your bonus determined?"",""What does the feedback teach you?""]","[""3"",""True"",""$1.60"",""As many or as few as I wish"",""5% of my score on a random round"",""All of the above.""]",122662,623427,survey-multi-choice,A1R3W25JDAUQ09,392CY0QWG1R201SSYXUZROSTGH34IN,4
66,"[True, True, True, True, False, False]","[""How many flights are there per round?"",""True or false: The hidden values will change each time I start a new round."",""How much does it cost to observe each hidden value?"",""How many hidden values am I allowed to observe in each round?"",""How is your bonus determined?"",""What does the feedback teach you?""]","[""3"",""True"",""$1.60"",""As many or as few as I wish"",""5% of my best score on any round"",""The length of the delay is based on how much more money I could have earned by planning and deciding better.""]",49612,171665,survey-multi-choice,A1RG8PCK9V4QP,3QAVNHZ3EM4JSRGFS113W76LPVUALJ,5
68,"[True, True, True, True, False, True]","[""How many flights are there per round?"",""True or false: The hidden values will change each time I start a new round."",""How much does it cost to observe each hidden value?"",""How many hidden values am I allowed to observe in each round?"",""How is your bonus determined?"",""What does the feedback teach you?""]","[""3"",""True"",""$1.60"",""As many or as few as I wish"",""5% of my best score on any round"",""All of the above.""]",23264,258529,survey-multi-choice,A1RG8PCK9V4QP,3QAVNHZ3EM4JSRGFS113W76LPVUALJ,5
70,"[True, True, True, True, False, False]","[""How many flights are there per round?"",""True or false: The hidden values will change each time I start a new round."",""How much does it cost to observe each hidden value?"",""How many hidden values am I allowed to observe in each round?"",""How is your bonus determined?"",""What does the feedback teach you?""]","[""3"",""True"",""$1.60"",""As many or as few as I wish"",""5% of my best score on any round"",""Whether I observed the rewards of relevant locations.""]",18429,291492,survey-multi-choice,A1RG8PCK9V4QP,3QAVNHZ3EM4JSRGFS113W76LPVUALJ,5
72,"[True, True, True, True, True, True]","[""How many flights are there per round?"",""True or false: The hidden values will change each time I start a new round."",""How much does it cost to observe each hidden value?"",""How many hidden values am I allowed to observe in each round?"",""How is your bonus determined?"",""What does the feedback teach you?""]","[""3"",""True"",""$1.60"",""As many or as few as I wish"",""5% of my score on a random round"",""All of the above.""]",21650,404194,survey-multi-choice,A1RG8PCK9V4QP,3QAVNHZ3EM4JSRGFS113W76LPVUALJ,5
83,"[False, True, True, True, True]","[""How many flights are there per round?"",""True or false: The hidden values will change each time I start a new round."",""How much does it cost to observe each hidden value?"",""How many hidden values am I allowed to observe in each round?"",""How is your bonus determined?""]","[""1"",""True"",""$1.60"",""As many or as few as I wish"",""5% of my score on a random round""]",22422,96925,survey-multi-choice,A1RPQXFV02P72A,3UXUOQ9OKEXKD6RDO70TD2OKUBPA7A,6
85,"[False, True, True, True, True]","[""How many flights are there per round?"",""True or false: The hidden values will change each time I start a new round."",""How much does it cost to observe each hidden value?"",""How many hidden values am I allowed to observe in each round?"",""How is your bonus determined?""]","[""2"",""True"",""$1.60"",""As many or as few as I wish"",""5% of my score on a random round""]",19083,155310,survey-multi-choice,A1RPQXFV02P72A,3UXUOQ9OKEXKD6RDO70TD2OKUBPA7A,6
87,"[True, True, True, True, True]","[""How many flights are there per round?"",""True or false: The hidden values will change each time I start a new round."",""How much does it cost to observe each hidden value?"",""How many hidden values am I allowed to observe in each round?"",""How is your bonus determined?""]","[""3"",""True"",""$1.60"",""As many or as few as I wish"",""5% of my score on a random round""]",13708,195426,survey-multi-choice,A1RPQXFV02P72A,3UXUOQ9OKEXKD6RDO70TD2OKUBPA7A,6
98,"[False, True, True, True, False, True]","[""How many flights are there per round?"",""True or false: The hidden values will change each time I start a new round."",""How much does it cost to observe each hidden value?"",""How many hidden values am I allowed to observe in each round?"",""How is your bonus determined?"",""What does the feedback teach you?""]","[""1"",""True"",""$1.60"",""As many or as few as I wish"",""5% of my best score on any round"",""All of the above.""]",22396,60423,survey-multi-choice,A1SL65Z68BK1UT,351SEKWQS0H1WG1CCNTKMLTGA3GMDY,7
100,"[False, True, True, True, False, True]","[""How many flights are there per round?"",""True or false: The hidden values will change each time I start a new round."",""How much does it cost to observe each hidden value?"",""How many hidden values am I allowed to observe in each round?"",""How is your bonus determined?"",""What does the feedback teach you?""]","[""2"",""True"",""$1.60"",""As many or as few as I wish"",""5% of my best score on any round"",""All of the above.""]",13550,94172,survey-multi-choice,A1SL65Z68BK1UT,351SEKWQS0H1WG1CCNTKMLTGA3GMDY,7
102,"[True, True, True, True, True, True]","[""How many flights are there per round?"",""True or false: The hidden values will change each time I start a new round."",""How much does it cost to observe each hidden value?"",""How many hidden values am I allowed to observe in each round?"",""How is your bonus determined?"",""What does the feedback teach you?""]","[""3"",""True"",""$1.60"",""As many or as few as I wish"",""5% of my score on a random round"",""All of the above.""]",11545,156235,survey-multi-choice,A1SL65Z68BK1UT,351SEKWQS0H1WG1CCNTKMLTGA3GMDY,7
113,"[False, True, True, True, True, True]","[""How many flights are there per round?"",""True or false: The hidden values will change each time I start a new round."",""How much does it cost to observe each hidden value?"",""How many hidden values am I allowed to observe in each round?"",""How is your bonus determined?"",""What does the feedback teach you?""]","[""4"",""True"",""$1.60"",""As many or as few as I wish"",""5% of my score on a random round"",""All of the above.""]",62322,198725,survey-multi-choice,A1TNOYRQG5VT7D,3O7L7BFSHEPKS3PLN36C0A4KT6YEI4,8
115,"[True, True, True, True, True, True]","[""How many flights are there per round?"",""True or false: The hidden values will change each time I start a new round."",""How much does it cost to observe each hidden value?"",""How many hidden values am I allowed to observe in each round?"",""How is your bonus determined?"",""What does the feedback teach you?""]","[""3"",""True"",""$1.60"",""As many or as few as I wish"",""5% of my score on a random round"",""All of the above.""]",22525,250402,survey-multi-choice,A1TNOYRQG5VT7D,3O7L7BFSHEPKS3PLN36C0A4KT6YEI4,8
126,"[False, False, True, True, True, False]","[""How many flights are there per round?"",""True or false: The hidden values will change each time I start a new round."",""How much does it cost to observe each hidden value?"",""How many hidden values am I allowed to observe in each round?"",""How is your bonus determined?"",""What does the feedback teach you?""]","[""2"",""False"",""$1.60"",""As many or as few as I wish"",""5% of my score on a random round"",""Whether I chose the move that was best according to the information I had.""]",63892,220668,survey-multi-choice,A23RGG9LXG380R,3R3YRB5GRF3MBH391FT4NU242MMUAW,9
128,"[False, False, True, True, True, True]","[""How many flights are there per round?"",""True or false: The hidden values will change each time I start a new round."",""How much does it cost to observe each hidden value?"",""How many hidden values am I allowed to observe in each round?"",""How is your bonus determined?"",""What does the feedback teach you?""]","[""2"",""False"",""$1.60"",""As many or as few as I wish"",""5% of my score on a random round"",""All of the above.""]",20891,312494,survey-multi-choice,A23RGG9LXG380R,3R3YRB5GRF3MBH391FT4NU242MMUAW,9
130,"[False, True, True, True, True, True]","[""How many flights are there per round?"",""True or false: The hidden values will change each time I start a new round."",""How much does it cost to observe each hidden value?"",""How many hidden values am I allowed to observe in each round?"",""How is your bonus determined?"",""What does the feedback teach you?""]","[""2"",""True"",""$1.60"",""As many or as few as I wish"",""5% of my score on a random round"",""All of the above.""]",25926,372197,survey-multi-choice,A23RGG9LXG380R,3R3YRB5GRF3MBH391FT4NU242MMUAW,9
132,"[False, False, True, True, True, True]","[""How many flights are there per round?"",""True or false: The hidden values will change each time I start a new round."",""How much does it cost to observe each hidden value?"",""How many hidden values am I allowed to observe in each round?"",""How is your bonus determined?"",""What does the feedback teach you?""]","[""2"",""False"",""$1.60"",""As many or as few as I wish"",""5% of my score on a random round"",""All of the above.""]",20622,406583,survey-multi-choice,A23RGG9LXG380R,3R3YRB5GRF3MBH391FT4NU242MMUAW,9
134,"[False, True, True, True, True, False]","[""How many flights are there per round?"",""True or false: The hidden values will change each time I start a new round."",""How much does it cost to observe each hidden value?"",""How many hidden values am I allowed to observe in each round?"",""How is your bonus determined?"",""What does the feedback teach you?""]","[""2"",""True"",""$1.60"",""As many or as few as I wish"",""5% of my score on a random round"",""Whether I observed the rewards of relevant locations.""]",20109,459675,survey-multi-choice,A23RGG9LXG380R,3R3YRB5GRF3MBH391FT4NU242MMUAW,9
136,"[True, False, True, True, True, True]","[""How many flights are there per round?"",""True or false: The hidden values will change each time I start a new round."",""How much does it cost to observe each hidden value?"",""How many hidden values am I allowed to observe in each round?"",""How is your bonus determined?"",""What does the feedback teach you?""]","[""3"",""False"",""$1.60"",""As many or as few as I wish"",""5% of my score on a random round"",""All of the above.""]",25331,514418,survey-multi-choice,A23RGG9LXG380R,3R3YRB5GRF3MBH391FT4NU242MMUAW,9
138,"[True, True, True, True, True, True]","[""How many flights are there per round?"",""True or false: The hidden values will change each time I start a new round."",""How much does it cost to observe each hidden value?"",""How many hidden values am I allowed to observe in each round?"",""How is your bonus determined?"",""What does the feedback teach you?""]","[""3"",""True"",""$1.60"",""As many or as few as I wish"",""5% of my score on a random round"",""All of the above.""]",16107,541348,survey-multi-choice,A23RGG9LXG380R,3R3YRB5GRF3MBH391FT4NU242MMUAW,9
149,"[True, True, True, True, False, True]","[""How many flights are there per round?"",""True or false: The hidden values will change each time I start a new round."",""How much does it cost to observe each hidden value?"",""How many hidden values am I allowed to observe in each round?"",""How is your bonus determined?"",""What does the feedback teach you?""]","[""3"",""True"",""$1.60"",""As many or as few as I wish"",""5% of my best score on any round"",""All of the above.""]",17660,28479,survey-multi-choice,A29ZV4XJB7R1O,3QL2OFSM96IX96GYOSD9FU0YUTFCNP,10
151,"[True, True, True, True, False, False]","[""How many flights are there per round?"",""True or false: The hidden values will change each time I start a new round."",""How much does it cost to observe each hidden value?"",""How many hidden values am I allowed to observe in each round?"",""How is your bonus determined?"",""What does the feedback teach you?""]","[""3"",""True"",""$1.60"",""As many or as few as I wish"",""5% of my best score on any round"",""Whether I chose the move that was best according to the information I had.""]",37018,86145,survey-multi-choice,A29ZV4XJB7R1O,3QL2OFSM96IX96GYOSD9FU0YUTFCNP,10
153,"[True, True, True, True, True, False]","[""How many flights are there per round?"",""True or false: The hidden values will change each time I start a new round."",""How much does it cost to observe each hidden value?"",""How many hidden values am I allowed to observe in each round?"",""How is your bonus determined?"",""What does the feedback teach you?""]","[""3"",""True"",""$1.60"",""As many or as few as I wish"",""5% of my score on a random round"",""The length of the delay is based on how much more money I could have earned by planning and deciding better.""]",42329,302162,survey-multi-choice,A29ZV4XJB7R1O,3QL2OFSM96IX96GYOSD9FU0YUTFCNP,10
155,"[True, True, True, False, True, True]","[""How many flights are there per round?"",""True or false: The hidden values will change each time I start a new round."",""How much does it cost to observe each hidden value?"",""How many hidden values am I allowed to observe in each round?"",""How is your bonus determined?"",""What does the feedback teach you?""]","[""3"",""True"",""$1.60"",""At most 1"",""5% of my score on a random round"",""All of the above.""]",25785,365023,survey-multi-choice,A29ZV4XJB7R1O,3QL2OFSM96IX96GYOSD9FU0YUTFCNP,10
157,"[True, True, True, True, True, True]","[""How many flights are there per round?"",""True or false: The hidden values will change each time I start a new round."",""How much does it cost to observe each hidden value?"",""How many hidden values am I allowed to observe in each round?"",""How is your bonus determined?"",""What does the feedback teach you?""]","[""3"",""True"",""$1.60"",""As many or as few as I wish"",""5% of my score on a random round"",""All of the above.""]",22942,470513,survey-multi-choice,A29ZV4XJB7R1O,3QL2OFSM96IX96GYOSD9FU0YUTFCNP,10
168,"[False, True, True, True, True, False]","[""How many flights are there per round?"",""True or false: The hidden values will change each time I start a new round."",""How much does it cost to observe each hidden value?"",""How many hidden values am I allowed to observe in each round?"",""How is your bonus determined?"",""What does the feedback teach you?""]","[""1"",""True"",""$1.60"",""As many or as few as I wish"",""5% of my score on a random round"",""Whether I observed the rewards of relevant locations.""]",29338,778944,survey-multi-choice,A2ARHK50FQ79YC,3300DTYQT2HX91D40BBL9CV6KGFEQ7,11
170,"[False, True, True, True, True, True]","[""How many flights are there per round?"",""True or false: The hidden values will change each time I start a new round."",""How much does it cost to observe each hidden value?"",""How many hidden values am I allowed to observe in each round?"",""How is your bonus determined?"",""What does the feedback teach you?""]","[""2"",""True"",""$1.60"",""As many or as few as I wish"",""5% of my score on a random round"",""All of the above.""]",22385,871470,survey-multi-choice,A2ARHK50FQ79YC,3300DTYQT2HX91D40BBL9CV6KGFEQ7,11
172,"[False, True, True, True, True, False]","[""How many flights are there per round?"",""True or false: The hidden values will change each time I start a new round."",""How much does it cost to observe each hidden value?"",""How many hidden values am I allowed to observe in each round?"",""How is your bonus determined?"",""What does the feedback teach you?""]","[""1"",""True"",""$1.60"",""As many or as few as I wish"",""5% of my score on a random round"",""Whether I observed the rewards of relevant locations.""]",17400,969497,survey-multi-choice,A2ARHK50FQ79YC,3300DTYQT2HX91D40BBL9CV6KGFEQ7,11
174,"[False, True, True, True, True, False]","[""How many flights are there per round?"",""True or false: The hidden values will change each time I start a new round."",""How much does it cost to observe each hidden value?"",""How many hidden values am I allowed to observe in each round?"",""How is your bonus determined?"",""What does the feedback teach you?""]","[""2"",""True"",""$1.60"",""As many or as few as I wish"",""5% of my score on a random round"",""Whether I observed the rewards of relevant locations.""]",24145,1033648,survey-multi-choice,A2ARHK50FQ79YC,3300DTYQT2HX91D40BBL9CV6KGFEQ7,11
176,"[False, True, True, True, True, True]","[""How many flights are there per round?"",""True or false: The hidden values will change each time I start a new round."",""How much does it cost to observe each hidden value?"",""How many hidden values am I allowed to observe in each round?"",""How is your bonus determined?"",""What does the feedback teach you?""]","[""1"",""True"",""$1.60"",""As many or as few as I wish"",""5% of my score on a random round"",""All of the above.""]",27712,1123102,survey-multi-choice,A2ARHK50FQ79YC,3300DTYQT2HX91D40BBL9CV6KGFEQ7,11
178,"[False, True, True, True, True, True]","[""How many flights are there per round?"",""True or false: The hidden values will change each time I start a new round."",""How much does it cost to observe each hidden value?"",""How many hidden values am I allowed to observe in each round?"",""How is your bonus determined?"",""What does the feedback teach you?""]","[""1"",""True"",""$1.60"",""As many or as few as I wish"",""5% of my score on a random round"",""All of the above.""]",34454,1264203,survey-multi-choice,A2ARHK50FQ79YC,3300DTYQT2HX91D40BBL9CV6KGFEQ7,11
180,"[True, True, True, True, True, True]","[""How many flights are there per round?"",""True or false: The hidden values will change each time I start a new round."",""How much does it cost to observe each hidden value?"",""How many hidden values am I allowed to observe in each round?"",""How is your bonus determined?"",""What does the feedback teach you?""]","[""3"",""True"",""$1.60"",""As many or as few as I wish"",""5% of my score on a random round"",""All of the above.""]",8212,1293810,survey-multi-choice,A2ARHK50FQ79YC,3300DTYQT2HX91D40BBL9CV6KGFEQ7,11
191,"[False, True, True, True, True]","[""How many flights are there per round?"",""True or false: The hidden values will change each time I start a new round."",""How much does it cost to observe each hidden value?"",""How many hidden values am I allowed to observe in each round?"",""How is your bonus determined?""]","[""2"",""True"",""$1.60"",""As many or as few as I wish"",""5% of my score on a random round""]",40437,139737,survey-multi-choice,A2BPBFN87X32NO,3E4GGUZ1T8RJ3I3TUMWNBPA8O7X2K1,12
193,"[True, True, True, True, True]","[""How many flights are there per round?"",""True or false: The hidden values will change each time I start a new round."",""How much does it cost to observe each hidden value?"",""How many hidden values am I allowed to observe in each round?"",""How is your bonus determined?""]","[""3"",""True"",""$1.60"",""As many or as few as I wish"",""5% of my score on a random round""]",14841,228605,survey-multi-choice,A2BPBFN87X32NO,3E4GGUZ1T8RJ3I3TUMWNBPA8O7X2K1,12
204,"[True, True, True, True, True, True]","[""How many flights are there per round?"",""True or false: The hidden values will change each time I start a new round."",""How much does it cost to observe each hidden value?"",""How many hidden values am I allowed to observe in each round?"",""How is your bonus determined?"",""What does the feedback teach you?""]","[""3"",""True"",""$1.60"",""As many or as few as I wish"",""5% of my score on a random round"",""All of the above.""]",12008,17619,survey-multi-choice,A2CQP9DZSDUC5V,3ZOTGHDK5IBVY856MT3M9O4L665OS9,13
215,"[False, True, True, True, True]","[""How many flights are there per round?"",""True or false: The hidden values will change each time I start a new round."",""How much does it cost to observe each hidden value?"",""How many hidden values am I allowed to observe in each round?"",""How is your bonus determined?""]","[""1"",""True"",""$1.60"",""As many or as few as I wish"",""5% of my score on a random round""]",26187,206690,survey-multi-choice,A2HGSFG0CL508L,3HFNH7HEMHEVTF9V66199FGIXWTQGZ,14
217,"[False, True, True, True, True]","[""How many flights are there per round?"",""True or false: The hidden values will change each time I start a new round."",""How much does it cost to observe each hidden value?"",""How many hidden values am I allowed to observe in each round?"",""How is your bonus determined?""]","[""1"",""True"",""$1.60"",""As many or as few as I wish"",""5% of my score on a random round""]",46721,345963,survey-multi-choice,A2HGSFG0CL508L,3HFNH7HEMHEVTF9V66199FGIXWTQGZ,14
219,"[False, True, True, True, False]","[""How many flights are there per round?"",""True or false: The hidden values will change each time I start a new round."",""How much does it cost to observe each hidden value?"",""How many hidden values am I allowed to observe in each round?"",""How is your bonus determined?""]","[""1"",""True"",""$1.60"",""As many or as few as I wish"",""5% of my best score on any round""]",23085,667101,survey-multi-choice,A2HGSFG0CL508L,3HFNH7HEMHEVTF9V66199FGIXWTQGZ,14
221,"[False, False, True, True, False]","[""How many flights are there per round?"",""True or false: The hidden values will change each time I start a new round."",""How much does it cost to observe each hidden value?"",""How many hidden values am I allowed to observe in each round?"",""How is your bonus determined?""]","[""1"",""False"",""$1.60"",""As many or as few as I wish"",""5% of my best score on any round""]",60781,736673,survey-multi-choice,A2HGSFG0CL508L,3HFNH7HEMHEVTF9V66199FGIXWTQGZ,14
223,"[False, True, True, True, True]","[""How many flights are there per round?"",""True or false: The hidden values will change each time I start a new round."",""How much does it cost to observe each hidden value?"",""How many hidden values am I allowed to observe in each round?"",""How is your bonus determined?""]","[""1"",""True"",""$1.60"",""As many or as few as I wish"",""5% of my score on a random round""]",136570,969875,survey-multi-choice,A2HGSFG0CL508L,3HFNH7HEMHEVTF9V66199FGIXWTQGZ,14
225,"[False, True, True, True, True]","[""How many flights are there per round?"",""True or false: The hidden values will change each time I start a new round."",""How much does it cost to observe each hidden value?"",""How many hidden values am I allowed to observe in each round?"",""How is your bonus determined?""]","[""4"",""True"",""$1.60"",""As many or as few as I wish"",""5% of my score on a random round""]",19224,1011422,survey-multi-choice,A2HGSFG0CL508L,3HFNH7HEMHEVTF9V66199FGIXWTQGZ,14
227,"[False, False, True, True, True]","[""How many flights are there per round?"",""True or false: The hidden values will change each time I start a new round."",""How much does it cost to observe each hidden value?"",""How many hidden values am I allowed to observe in each round?"",""How is your bonus determined?""]","[""1"",""False"",""$1.60"",""As many or as few as I wish"",""5% of my score on a random round""]",46140,1297270,survey-multi-choice,A2HGSFG0CL508L,3HFNH7HEMHEVTF9V66199FGIXWTQGZ,14
229,"[False, False, True, True, False]","[""How many flights are there per round?"",""True or false: The hidden values will change each time I start a new round."",""How much does it cost to observe each hidden value?"",""How many hidden values am I allowed to observe in each round?"",""How is your bonus determined?""]","[""1"",""False"",""$1.60"",""As many or as few as I wish"",""5% of my best score on any round""]",14103,1318083,survey-multi-choice,A2HGSFG0CL508L,3HFNH7HEMHEVTF9V66199FGIXWTQGZ,14
231,"[False, True, True, True, True]","[""How many flights are there per round?"",""True or false: The hidden values will change each time I start a new round."",""How much does it cost to observe each hidden value?"",""How many hidden values am I allowed to observe in each round?"",""How is your bonus determined?""]","[""2"",""True"",""$1.60"",""As many or as few as I wish"",""5% of my score on a random round""]",27277,1407950,survey-multi-choice,A2HGSFG0CL508L,3HFNH7HEMHEVTF9V66199FGIXWTQGZ,14
233,"[True, True, True, True, True]","[""How many flights are there per round?"",""True or false: The hidden values will change each time I start a new round."",""How much does it cost to observe each hidden value?"",""How many hidden values am I allowed to observe in each round?"",""How is your bonus determined?""]","[""3"",""True"",""$1.60"",""As many or as few as I wish"",""5% of my score on a random round""]",10293,1422976,survey-multi-choice,A2HGSFG0CL508L,3HFNH7HEMHEVTF9V66199FGIXWTQGZ,14
244,"[False, True, True, True, True]","[""How many flights are there per round?"",""True or false: The hidden values will change each time I start a new round."",""How much does it cost to observe each hidden value?"",""How many hidden values am I allowed to observe in each round?"",""How is your bonus determined?""]","[""2"",""True"",""$1.60"",""As many or as few as I wish"",""5% of my score on a random round""]",22200,114142,survey-multi-choice,A2HLBE6RNK7DGC,3ZDAD0O1T1DJ7HWDCKV826R0KTOTX8,15
246,"[True, True, True, True, True]","[""How many flights are there per round?"",""True or false: The hidden values will change each time I start a new round."",""How much does it cost to observe each hidden value?"",""How many hidden values am I allowed to observe in each round?"",""How is your bonus determined?""]","[""3"",""True"",""$1.60"",""As many or as few as I wish"",""5% of my score on a random round""]",11216,140217,survey-multi-choice,A2HLBE6RNK7DGC,3ZDAD0O1T1DJ7HWDCKV826R0KTOTX8,15
257,"[False, True, True, True, True, True]","[""How many flights are there per round?"",""True or false: The hidden values will change each time I start a new round."",""How much does it cost to observe each hidden value?"",""How many hidden values am I allowed to observe in each round?"",""How is your bonus determined?"",""What does the feedback teach you?""]","[""1"",""True"",""$1.60"",""As many or as few as I wish"",""5% of my score on a random round"",""All of the above.""]",37659,137189,survey-multi-choice,A2JCK494NV7TFX,3EF8EXOTT1VH3DFFTXWX5R0QHCJ1JK,16
259,"[True, True, True, True, True, True]","[""How many flights are there per round?"",""True or false: The hidden values will change each time I start a new round."",""How much does it cost to observe each hidden value?"",""How many hidden values am I allowed to observe in each round?"",""How is your bonus determined?"",""What does the feedback teach you?""]","[""3"",""True"",""$1.60"",""As many or as few as I wish"",""5% of my score on a random round"",""All of the above.""]",11286,185519,survey-multi-choice,A2JCK494NV7TFX,3EF8EXOTT1VH3DFFTXWX5R0QHCJ1JK,16
270,"[False, True, True, False, False, True]","[""How many flights are there per round?"",""True or false: The hidden values will change each time I start a new round."",""How much does it cost to observe each hidden value?"",""How many hidden values am I allowed to observe in each round?"",""How is your bonus determined?"",""What does the feedback teach you?""]","[""1"",""True"",""$1.60"",""At most 1"",""5% of my best score on any round"",""All of the above.""]",149137,339314,survey-multi-choice,A2KMX4HGXSWS7U,3DYGAII7PL816S2U9PRW3OUAYNGQP3,17
272,"[False, True, True, False, True, True]","[""How many flights are there per round?"",""True or false: The hidden values will change each time I start a new round."",""How much does it cost to observe each hidden value?"",""How many hidden values am I allowed to observe in each round?"",""How is your bonus determined?"",""What does the feedback teach you?""]","[""1"",""True"",""$1.60"",""At most 5"",""5% of my score on a random round"",""All of the above.""]",39081,392386,survey-multi-choice,A2KMX4HGXSWS7U,3DYGAII7PL816S2U9PRW3OUAYNGQP3,17
274,"[False, True, True, True, True, False]","[""How many flights are there per round?"",""True or false: The hidden values will change each time I start a new round."",""How much does it cost to observe each hidden value?"",""How many hidden values am I allowed to observe in each round?"",""How is your bonus determined?"",""What does the feedback teach you?""]","[""1"",""True"",""$1.60"",""As many or as few as I wish"",""5% of my score on a random round"",""Whether I chose the move that was best according to the information I had.""]",145835,547442,survey-multi-choice,A2KMX4HGXSWS7U,3DYGAII7PL816S2U9PRW3OUAYNGQP3,17
276,"[False, True, True, True, True, False]","[""How many flights are there per round?"",""True or false: The hidden values will change each time I start a new round."",""How much does it cost to observe each hidden value?"",""How many hidden values am I allowed to observe in each round?"",""How is your bonus determined?"",""What does the feedback teach you?""]","[""1"",""True"",""$1.60"",""As many or as few as I wish"",""5% of my score on a random round"",""Whether I chose the move that was best according to the information I had.""]",64384,656038,survey-multi-choice,A2KMX4HGXSWS7U,3DYGAII7PL816S2U9PRW3OUAYNGQP3,17
278,"[False, True, True, False, True, True]","[""How many flights are there per round?"",""True or false: The hidden values will change each time I start a new round."",""How much does it cost to observe each hidden value?"",""How many hidden values am I allowed to observe in each round?"",""How is your bonus determined?"",""What does the feedback teach you?""]","[""1"",""True"",""$1.60"",""At most 1"",""5% of my score on a random round"",""All of the above.""]",67232,807396,survey-multi-choice,A2KMX4HGXSWS7U,3DYGAII7PL816S2U9PRW3OUAYNGQP3,17
280,"[False, True, True, True, True, True]","[""How many flights are there per round?"",""True or false: The hidden values will change each time I start a new round."",""How much does it cost to observe each hidden value?"",""How many hidden values am I allowed to observe in each round?"",""How is your bonus determined?"",""What does the feedback teach you?""]","[""1"",""True"",""$1.60"",""As many or as few as I wish"",""5% of my score on a random round"",""All of the above.""]",163820,1016030,survey-multi-choice,A2KMX4HGXSWS7U,3DYGAII7PL816S2U9PRW3OUAYNGQP3,17
282,"[False, True, True, True, True, True]","[""How many flights are there per round?"",""True or false: The hidden values will change each time I start a new round."",""How much does it cost to observe each hidden value?"",""How many hidden values am I allowed to observe in each round?"",""How is your bonus determined?"",""What does the feedback teach you?""]","[""4"",""True"",""$1.60"",""As many or as few as I wish"",""5% of my score on a random round"",""All of the above.""]",84385,1113922,survey-multi-choice,A2KMX4HGXSWS7U,3DYGAII7PL816S2U9PRW3OUAYNGQP3,17
284,"[False, True, True, True, True, True]","[""How many flights are there per round?"",""True or false: The hidden values will change each time I start a new round."",""How much does it cost to observe each hidden value?"",""How many hidden values am I allowed to observe in each round?"",""How is your bonus determined?"",""What does the feedback teach you?""]","[""2"",""True"",""$1.60"",""As many or as few as I wish"",""5% of my score on a random round"",""All of the above.""]",11885,1156362,survey-multi-choice,A2KMX4HGXSWS7U,3DYGAII7PL816S2U9PRW3OUAYNGQP3,17
286,"[False, False, True, True, True, True]","[""How many flights are there per round?"",""True or false: The hidden values will change each time I start a new round."",""How much does it cost to observe each hidden value?"",""How many hidden values am I allowed to observe in each round?"",""How is your bonus determined?"",""What does the feedback teach you?""]","[""1"",""False"",""$1.60"",""As many or as few as I wish"",""5% of my score on a random round"",""All of the above.""]",41236,1209349,survey-multi-choice,A2KMX4HGXSWS7U,3DYGAII7PL816S2U9PRW3OUAYNGQP3,17
288,"[True, True, True, True, True, True]","[""How many flights are there per round?"",""True or false: The hidden values will change each time I start a new round."",""How much does it cost to observe each hidden value?"",""How many hidden values am I allowed to observe in each round?"",""How is your bonus determined?"",""What does the feedback teach you?""]","[""3"",""True"",""$1.60"",""As many or as few as I wish"",""5% of my score on a random round"",""All of the above.""]",11134,1259457,survey-multi-choice,A2KMX4HGXSWS7U,3DYGAII7PL816S2U9PRW3OUAYNGQP3,17
299,"[True, False, True, True, True, False]","[""How many flights are there per round?"",""True or false: The hidden values will change each time I start a new round."",""How much does it cost to observe each hidden value?"",""How many hidden values am I allowed to observe in each round?"",""How is your bonus determined?"",""What does the feedback teach you?""]","[""3"",""False"",""$1.60"",""As many or as few as I wish"",""5% of my score on a random round"",""The length of the delay is based on how much more money I could have earned by planning and deciding better.""]",34029,270382,survey-multi-choice,A2RFZPWXR7D4I5,3VP0C6EFSGW2B7MX20L6GFJOTHT6MQ,18
301,"[True, True, True, True, True, False]","[""How many flights are there per round?"",""True or false: The hidden values will change each time I start a new round."",""How much does it cost to observe each hidden value?"",""How many hidden values am I allowed to observe in each round?"",""How is your bonus determined?"",""What does the feedback teach you?""]","[""3"",""True"",""$1.60"",""As many or as few as I wish"",""5% of my score on a random round"",""Whether I chose the move that was best according to the information I had.""]",24262,319045,survey-multi-choice,A2RFZPWXR7D4I5,3VP0C6EFSGW2B7MX20L6GFJOTHT6MQ,18
303,"[True, True, True, True, True, True]","[""How many flights are there per round?"",""True or false: The hidden values will change each time I start a new round."",""How much does it cost to observe each hidden value?"",""How many hidden values am I allowed to observe in each round?"",""How is your bonus determined?"",""What does the feedback teach you?""]","[""3"",""True"",""$1.60"",""As many or as few as I wish"",""5% of my score on a random round"",""All of the above.""]",14374,341785,survey-multi-choice,A2RFZPWXR7D4I5,3VP0C6EFSGW2B7MX20L6GFJOTHT6MQ,18
314,"[False, True, True, True, True, False]","[""How many flights are there per round?"",""True or false: The hidden values will change each time I start a new round."",""How much does it cost to observe each hidden value?"",""How many hidden values am I allowed to observe in each round?"",""How is your bonus determined?"",""What does the feedback teach you?""]","[""1"",""True"",""$1.60"",""As many or as few as I wish"",""5% of my score on a random round"",""Whether I observed the rewards of relevant locations.""]",32058,115950,survey-multi-choice,A2TOA704O1ML6A,3F0BG9B9MPNL9OPG4DE9GO6RX1QY74,19
316,"[False, True, True, True, True, True]","[""How many flights are there per round?"",""True or false: The hidden values will change each time I start a new round."",""How much does it cost to observe each hidden value?"",""How many hidden values am I allowed to observe in each round?"",""How is your bonus determined?"",""What does the feedback teach you?""]","[""1"",""True"",""$1.60"",""As many or as few as I wish"",""5% of my score on a random round"",""All of the above.""]",21827,200009,survey-multi-choice,A2TOA704O1ML6A,3F0BG9B9MPNL9OPG4DE9GO6RX1QY74,19
318,"[True, True, True, True, True, True]","[""How many flights are there per round?"",""True or false: The hidden values will change each time I start a new round."",""How much does it cost to observe each hidden value?"",""How many hidden values am I allowed to observe in each round?"",""How is your bonus determined?"",""What does the feedback teach you?""]","[""3"",""True"",""$1.60"",""As many or as few as I wish"",""5% of my score on a random round"",""All of the above.""]",27263,299373,survey-multi-choice,A2TOA704O1ML6A,3F0BG9B9MPNL9OPG4DE9GO6RX1QY74,19
329,"[False, True, False, True, False]","[""How many flights are there per round?"",""True or false: The hidden values will change each time I start a new round."",""How much does it cost to observe each hidden value?"",""How many hidden values am I allowed to observe in each round?"",""How is your bonus determined?""]","[""4"",""True"",""$0.05"",""As many or as few as I wish"",""10% of my total score on all rounds""]",21742,35185,survey-multi-choice,A2W59CL4UQ3S4S,3ZV9H2YQQD7ZJ0TTN0TVIA9VHS63W9,20
331,"[False, True, True, True, True]","[""How many flights are there per round?"",""True or false: The hidden values will change each time I start a new round."",""How much does it cost to observe each hidden value?"",""How many hidden values am I allowed to observe in each round?"",""How is your bonus determined?""]","[""1"",""True"",""$1.60"",""As many or as few as I wish"",""5% of my score on a random round""]",32694,118218,survey-multi-choice,A2W59CL4UQ3S4S,3ZV9H2YQQD7ZJ0TTN0TVIA9VHS63W9,20
333,"[False, True, True, True, True]","[""How many flights are there per round?"",""True or false: The hidden values will change each time I start a new round."",""How much does it cost to observe each hidden value?"",""How many hidden values am I allowed to observe in each round?"",""How is your bonus determined?""]","[""1"",""True"",""$1.60"",""As many or as few as I wish"",""5% of my score on a random round""]",15517,178177,survey-multi-choice,A2W59CL4UQ3S4S,3ZV9H2YQQD7ZJ0TTN0TVIA9VHS63W9,20
335,"[False, True, True, True, True]","[""How many flights are there per round?"",""True or false: The hidden values will change each time I start a new round."",""How much does it cost to observe each hidden value?"",""How many hidden values am I allowed to observe in each round?"",""How is your bonus determined?""]","[""2"",""True"",""$1.60"",""As many or as few as I wish"",""5% of my score on a random round""]",7303,221537,survey-multi-choice,A2W59CL4UQ3S4S,3ZV9H2YQQD7ZJ0TTN0TVIA9VHS63W9,20
337,"[True, True, True, True, True]","[""How many flights are there per round?"",""True or false: The hidden values will change each time I start a new round."",""How much does it cost to observe each hidden value?"",""How many hidden values am I allowed to observe in each round?"",""How is your bonus determined?""]","[""3"",""True"",""$1.60"",""As many or as few as I wish"",""5% of my score on a random round""]",7241,241756,survey-multi-choice,A2W59CL4UQ3S4S,3ZV9H2YQQD7ZJ0TTN0TVIA9VHS63W9,20
348,"[False, True, True, True, True]","[""How many flights are there per round?"",""True or false: The hidden values will change each time I start a new round."",""How much does it cost to observe each hidden value?"",""How many hidden values am I allowed to observe in each round?"",""How is your bonus determined?""]","[""1"",""True"",""$1.60"",""As many or as few as I wish"",""5% of my score on a random round""]",32340,130913,survey-multi-choice,A2WH3GIS2KF8LU,3TXD01ZLD4H79SNSSEJDARG4ACQU4L,21
350,"[False, True, True, True, True]","[""How many flights are there per round?"",""True or false: The hidden values will change each time I start a new round."",""How much does it cost to observe each hidden value?"",""How many hidden values am I allowed to observe in each round?"",""How is your bonus determined?""]","[""4"",""True"",""$1.60"",""As many or as few as I wish"",""5% of my score on a random round""]",26351,217697,survey-multi-choice,A2WH3GIS2KF8LU,3TXD01ZLD4H79SNSSEJDARG4ACQU4L,21
352,"[False, True, True, True, True]","[""How many flights are there per round?"",""True or false: The hidden values will change each time I start a new round."",""How much does it cost to observe each hidden value?"",""How many hidden values am I allowed to observe in each round?"",""How is your bonus determined?""]","[""2"",""True"",""$1.60"",""As many or as few as I wish"",""5% of my score on a random round""]",27684,314656,survey-multi-choice,A2WH3GIS2KF8LU,3TXD01ZLD4H79SNSSEJDARG4ACQU4L,21
354,"[True, True, True, True, True]","[""How many flights are there per round?"",""True or false: The hidden values will change each time I start a new round."",""How much does it cost to observe each hidden value?"",""How many hidden values am I allowed to observe in each round?"",""How is your bonus determined?""]","[""3"",""True"",""$1.60"",""As many or as few as I wish"",""5% of my score on a random round""]",11487,338802,survey-multi-choice,A2WH3GIS2KF8LU,3TXD01ZLD4H79SNSSEJDARG4ACQU4L,21
365,"[False, True, True, True, True, True]","[""How many flights are there per round?"",""True or false: The hidden values will change each time I start a new round."",""How much does it cost to observe each hidden value?"",""How many hidden values am I allowed to observe in each round?"",""How is your bonus determined?"",""What does the feedback teach you?""]","[""1"",""True"",""$1.60"",""As many or as few as I wish"",""5% of my score on a random round"",""All of the above.""]",26804,102364,survey-multi-choice,A2YBZFSUD5OP7W,3RANCT1ZVFHRUR817TT0I5MAK47UBR,22
367,"[False, True, True, True, True, False]","[""How many flights are there per round?"",""True or false: The hidden values will change each time I start a new round."",""How much does it cost to observe each hidden value?"",""How many hidden values am I allowed to observe in each round?"",""How is your bonus determined?"",""What does the feedback teach you?""]","[""1"",""True"",""$1.60"",""As many or as few as I wish"",""5% of my score on a random round"",""Whether I chose the move that was best according to the information I had.""]",90707,242851,survey-multi-choice,A2YBZFSUD5OP7W,3RANCT1ZVFHRUR817TT0I5MAK47UBR,22
369,"[False, True, True, True, True, True]","[""How many flights are there per round?"",""True or false: The hidden values will change each time I start a new round."",""How much does it cost to observe each hidden value?"",""How many hidden values am I allowed to observe in each round?"",""How is your bonus determined?"",""What does the feedback teach you?""]","[""4"",""True"",""$1.60"",""As many or as few as I wish"",""5% of my score on a random round"",""All of the above.""]",202155,483558,survey-multi-choice,A2YBZFSUD5OP7W,3RANCT1ZVFHRUR817TT0I5MAK47UBR,22
371,"[True, True, True, True, True, True]","[""How many flights are there per round?"",""True or false: The hidden values will change each time I start a new round."",""How much does it cost to observe each hidden value?"",""How many hidden values am I allowed to observe in each round?"",""How is your bonus determined?"",""What does the feedback teach you?""]","[""3"",""True"",""$1.60"",""As many or as few as I wish"",""5% of my score on a random round"",""All of the above.""]",12839,514137,survey-multi-choice,A2YBZFSUD5OP7W,3RANCT1ZVFHRUR817TT0I5MAK47UBR,22
382,"[False, True, True, True, True, True]","[""How many flights are there per round?"",""True or false: The hidden values will change each time I start a new round."",""How much does it cost to observe each hidden value?"",""How many hidden values am I allowed to observe in each round?"",""How is your bonus determined?"",""What does the feedback teach you?""]","[""1"",""True"",""$1.60"",""As many or as few as I wish"",""5% of my score on a random round"",""All of the above.""]",71583,208862,survey-multi-choice,A2YE2I9DYV9OKW,3IO1LGZLK9XNQIKT8ZBNBXIT9C5683,23
384,"[False, True, True, True, True, False]","[""How many flights are there per round?"",""True or false: The hidden values will change each time I start a new round."",""How much does it cost to observe each hidden value?"",""How many hidden values am I allowed to observe in each round?"",""How is your bonus determined?"",""What does the feedback teach you?""]","[""1"",""True"",""$1.60"",""As many or as few as I wish"",""5% of my score on a random round"",""The length of the delay is based on how much more money I could have earned by planning and deciding better.""]",29484,310334,survey-multi-choice,A2YE2I9DYV9OKW,3IO1LGZLK9XNQIKT8ZBNBXIT9C5683,23
386,"[False, True, True, True, True, True]","[""How many flights are there per round?"",""True or false: The hidden values will change each time I start a new round."",""How much does it cost to observe each hidden value?"",""How many hidden values am I allowed to observe in each round?"",""How is your bonus determined?"",""What does the feedback teach you?""]","[""1"",""True"",""$1.60"",""As many or as few as I wish"",""5% of my score on a random round"",""All of the above.""]",32800,443928,survey-multi-choice,A2YE2I9DYV9OKW,3IO1LGZLK9XNQIKT8ZBNBXIT9C5683,23
388,"[True, True, True, True, True, True]","[""How many flights are there per round?"",""True or false: The hidden values will change each time I start a new round."",""How much does it cost to observe each hidden value?"",""How many hidden values am I allowed to observe in each round?"",""How is your bonus determined?"",""What does the feedback teach you?""]","[""3"",""True"",""$1.60"",""As many or as few as I wish"",""5% of my score on a random round"",""All of the above.""]",11777,491960,survey-multi-choice,A2YE2I9DYV9OKW,3IO1LGZLK9XNQIKT8ZBNBXIT9C5683,23
399,"[True, True, True, True, False]","[""How many flights are there per round?"",""True or false: The hidden values will change each time I start a new round."",""How much does it cost to observe each hidden value?"",""How many hidden values am I allowed to observe in each round?"",""How is your bonus determined?""]","[""3"",""True"",""$1.60"",""As many or as few as I wish"",""5% of my best score on any round""]",19347,80423,survey-multi-choice,A34D413HR7ZIFM,3PDJHANYK5GGJTLMB35TOABSCVU6HH,24
401,"[False, True, True, True, True]","[""How many flights are there per round?"",""True or false: The hidden values will change each time I start a new round."",""How much does it cost to observe each hidden value?"",""How many hidden values am I allowed to observe in each round?"",""How is your bonus determined?""]","[""2"",""True"",""$1.60"",""As many or as few as I wish"",""5% of my score on a random round""]",18873,124287,survey-multi-choice,A34D413HR7ZIFM,3PDJHANYK5GGJTLMB35TOABSCVU6HH,24
403,"[False, True, True, True, True]","[""How many flights are there per round?"",""True or false: The hidden values will change each time I start a new round."",""How much does it cost to observe each hidden value?"",""How many hidden values am I allowed to observe in each round?"",""How is your bonus determined?""]","[""1"",""True"",""$1.60"",""As many or as few as I wish"",""5% of my score on a random round""]",14077,180562,survey-multi-choice,A34D413HR7ZIFM,3PDJHANYK5GGJTLMB35TOABSCVU6HH,24
405,"[False, True, True, True, True]","[""How many flights are there per round?"",""True or false: The hidden values will change each time I start a new round."",""How much does it cost to observe each hidden value?"",""How many hidden values am I allowed to observe in each round?"",""How is your bonus determined?""]","[""1"",""True"",""$1.60"",""As many or as few as I wish"",""5% of my score on a random round""]",30664,259155,survey-multi-choice,A34D413HR7ZIFM,3PDJHANYK5GGJTLMB35TOABSCVU6HH,24
407,"[False, True, True, True, True]","[""How many flights are there per round?"",""True or false: The hidden values will change each time I start a new round."",""How much does it cost to observe each hidden value?"",""How many hidden values am I allowed to observe in each round?"",""How is your bonus determined?""]","[""2"",""True"",""$1.60"",""As many or as few as I wish"",""5% of my score on a random round""]",23623,330722,survey-multi-choice,A34D413HR7ZIFM,3PDJHANYK5GGJTLMB35TOABSCVU6HH,24
409,"[True, True, True, True, True]","[""How many flights are there per round?"",""True or false: The hidden values will change each time I start a new round."",""How much does it cost to observe each hidden value?"",""How many hidden values am I allowed to observe in each round?"",""How is your bonus determined?""]","[""3"",""True"",""$1.60"",""As many or as few as I wish"",""5% of my score on a random round""]",12128,368673,survey-multi-choice,A34D413HR7ZIFM,3PDJHANYK5GGJTLMB35TOABSCVU6HH,24
420,"[False, True, True, True, True, True]","[""How many flights are there per round?"",""True or false: The hidden values will change each time I start a new round."",""How much does it cost to observe each hidden value?"",""How many hidden values am I allowed to observe in each round?"",""How is your bonus determined?"",""What does the feedback teach you?""]","[""1"",""True"",""$1.60"",""As many or as few as I wish"",""5% of my score on a random round"",""All of the above.""]",46902,145028,survey-multi-choice,A3862RIFFUV141,32Z9ZLUT1LK68ZRQBZRN5AXJXVOHOH,25
422,"[False, True, True, True, True, False]","[""How many flights are there per round?"",""True or false: The hidden values will change each time I start a new round."",""How much does it cost to observe each hidden value?"",""How many hidden values am I allowed to observe in each round?"",""How is your bonus determined?"",""What does the feedback teach you?""]","[""1"",""True"",""$1.60"",""As many or as few as I wish"",""5% of my score on a random round"",""The length of the delay is based on how much more money I could have earned by planning and deciding better.""]",28520,241067,survey-multi-choice,A3862RIFFUV141,32Z9ZLUT1LK68ZRQBZRN5AXJXVOHOH,25
424,"[True, True, True, True, True, True]","[""How many flights are there per round?"",""True or false: The hidden values will change each time I start a new round."",""How much does it cost to observe each hidden value?"",""How many hidden values am I allowed to observe in each round?"",""How is your bonus determined?"",""What does the feedback teach you?""]","[""3"",""True"",""$1.60"",""As many or as few as I wish"",""5% of my score on a random round"",""All of the above.""]",36911,316379,survey-multi-choice,A3862RIFFUV141,32Z9ZLUT1LK68ZRQBZRN5AXJXVOHOH,25
435,"[False, True, True, True, True, True]","[""How many flights are there per round?"",""True or false: The hidden values will change each time I start a new round."",""How much does it cost to observe each hidden value?"",""How many hidden values am I allowed to observe in each round?"",""How is your bonus determined?"",""What does the feedback teach you?""]","[""1"",""True"",""$1.60"",""As many or as few as I wish"",""5% of my score on a random round"",""All of the above.""]",32931,258557,survey-multi-choice,A3C9GGDXBZW62D,3NLZY2D53PPBF7NWHXYPM7LQTDFLQ0,26
437,"[True, True, True, True, True, True]","[""How many flights are there per round?"",""True or false: The hidden values will change each time I start a new round."",""How much does it cost to observe each hidden value?"",""How many hidden values am I allowed to observe in each round?"",""How is your bonus determined?"",""What does the feedback teach you?""]","[""3"",""True"",""$1.60"",""As many or as few as I wish"",""5% of my score on a random round"",""All of the above.""]",14942,376405,survey-multi-choice,A3C9GGDXBZW62D,3NLZY2D53PPBF7NWHXYPM7LQTDFLQ0,26
448,"[False, True, True, True, True]","[""How many flights are there per round?"",""True or false: The hidden values will change each time I start a new round."",""How much does it cost to observe each hidden value?"",""How many hidden values am I allowed to observe in each round?"",""How is your bonus determined?""]","[""1"",""True"",""$1.60"",""As many or as few as I wish"",""5% of my score on a random round""]",52852,200733,survey-multi-choice,A3EU2ZIKRJTLQD,39ASUFLU6X7HIYEGMP6D3KRZHI0XEJ,27
450,"[False, True, True, True, True]","[""How many flights are there per round?"",""True or false: The hidden values will change each time I start a new round."",""How much does it cost to observe each hidden value?"",""How many hidden values am I allowed to observe in each round?"",""How is your bonus determined?""]","[""2"",""True"",""$1.60"",""As many or as few as I wish"",""5% of my score on a random round""]",70636,388070,survey-multi-choice,A3EU2ZIKRJTLQD,39ASUFLU6X7HIYEGMP6D3KRZHI0XEJ,27
452,"[True, True, True, True, True]","[""How many flights are there per round?"",""True or false: The hidden values will change each time I start a new round."",""How much does it cost to observe each hidden value?"",""How many hidden values am I allowed to observe in each round?"",""How is your bonus determined?""]","[""3"",""True"",""$1.60"",""As many or as few as I wish"",""5% of my score on a random round""]",22450,484435,survey-multi-choice,A3EU2ZIKRJTLQD,39ASUFLU6X7HIYEGMP6D3KRZHI0XEJ,27
463,"[False, True, True, True, True, False]","[""How many flights are there per round?"",""True or false: The hidden values will change each time I start a new round."",""How much does it cost to observe each hidden value?"",""How many hidden values am I allowed to observe in each round?"",""How is your bonus determined?"",""What does the feedback teach you?""]","[""1"",""True"",""$1.60"",""As many or as few as I wish"",""5% of my score on a random round"",""Whether I observed the rewards of relevant locations.""]",27446,151241,survey-multi-choice,A3HMDGRGC5JB7E,39OWYR0EPKRYOH4MMWCL4GJ8VP9YF8,28
465,"[False, True, True, True, True, True]","[""How many flights are there per round?"",""True or false: The hidden values will change each time I start a new round."",""How much does it cost to observe each hidden value?"",""How many hidden values am I allowed to observe in each round?"",""How is your bonus determined?"",""What does the feedback teach you?""]","[""1"",""True"",""$1.60"",""As many or as few as I wish"",""5% of my score on a random round"",""All of the above.""]",13954,192701,survey-multi-choice,A3HMDGRGC5JB7E,39OWYR0EPKRYOH4MMWCL4GJ8VP9YF8,28
467,"[False, True, True, False, True, True]","[""How many flights are there per round?"",""True or false: The hidden values will change each time I start a new round."",""How much does it cost to observe each hidden value?"",""How many hidden values am I allowed to observe in each round?"",""How is your bonus determined?"",""What does the feedback teach you?""]","[""1"",""True"",""$1.60"",""At most 5"",""5% of my score on a random round"",""All of the above.""]",17906,240403,survey-multi-choice,A3HMDGRGC5JB7E,39OWYR0EPKRYOH4MMWCL4GJ8VP9YF8,28
469,"[False, True, True, True, True, True]","[""How many flights are there per round?"",""True or false: The hidden values will change each time I start a new round."",""How much does it cost to observe each hidden value?"",""How many hidden values am I allowed to observe in each round?"",""How is your bonus determined?"",""What does the feedback teach you?""]","[""2"",""True"",""$1.60"",""As many or as few as I wish"",""5% of my score on a random round"",""All of the above.""]",12233,290803,survey-multi-choice,A3HMDGRGC5JB7E,39OWYR0EPKRYOH4MMWCL4GJ8VP9YF8,28
471,"[False, True, True, False, True, True]","[""How many flights are there per round?"",""True or false: The hidden values will change each time I start a new round."",""How much does it cost to observe each hidden value?"",""How many hidden values am I allowed to observe in each round?"",""How is your bonus determined?"",""What does the feedback teach you?""]","[""2"",""True"",""$1.60"",""At most 1"",""5% of my score on a random round"",""All of the above.""]",12687,347129,survey-multi-choice,A3HMDGRGC5JB7E,39OWYR0EPKRYOH4MMWCL4GJ8VP9YF8,28
473,"[False, True, True, True, True, False]","[""How many flights are there per round?"",""True or false: The hidden values will change each time I start a new round."",""How much does it cost to observe each hidden value?"",""How many hidden values am I allowed to observe in each round?"",""How is your bonus determined?"",""What does the feedback teach you?""]","[""2"",""True"",""$1.60"",""As many or as few as I wish"",""5% of my score on a random round"",""Whether I chose the move that was best according to the information I had.""]",16652,378322,survey-multi-choice,A3HMDGRGC5JB7E,39OWYR0EPKRYOH4MMWCL4GJ8VP9YF8,28
475,"[False, True, True, True, True, True]","[""How many flights are there per round?"",""True or false: The hidden values will change each time I start a new round."",""How much does it cost to observe each hidden value?"",""How many hidden values am I allowed to observe in each round?"",""How is your bonus determined?"",""What does the feedback teach you?""]","[""1"",""True"",""$1.60"",""As many or as few as I wish"",""5% of my score on a random round"",""All of the above.""]",7659,402750,survey-multi-choice,A3HMDGRGC5JB7E,39OWYR0EPKRYOH4MMWCL4GJ8VP9YF8,28
477,"[False, True, True, True, True, True]","[""How many flights are there per round?"",""True or false: The hidden values will change each time I start a new round."",""How much does it cost to observe each hidden value?"",""How many hidden values am I allowed to observe in each round?"",""How is your bonus determined?"",""What does the feedback teach you?""]","[""2"",""True"",""$1.60"",""As many or as few as I wish"",""5% of my score on a random round"",""All of the above.""]",9935,419725,survey-multi-choice,A3HMDGRGC5JB7E,39OWYR0EPKRYOH4MMWCL4GJ8VP9YF8,28
479,"[True, True, True, True, True, True]","[""How many flights are there per round?"",""True or false: The hidden values will change each time I start a new round."",""How much does it cost to observe each hidden value?"",""How many hidden values am I allowed to observe in each round?"",""How is your bonus determined?"",""What does the feedback teach you?""]","[""3"",""True"",""$1.60"",""As many or as few as I wish"",""5% of my score on a random round"",""All of the above.""]",10448,439810,survey-multi-choice,A3HMDGRGC5JB7E,39OWYR0EPKRYOH4MMWCL4GJ8VP9YF8,28
490,"[False, True, True, True, True, False]","[""How many flights are there per round?"",""True or false: The hidden values will change each time I start a new round."",""How much does it cost to observe each hidden value?"",""How many hidden values am I allowed to observe in each round?"",""How is your bonus determined?"",""What does the feedback teach you?""]","[""1"",""True"",""$1.60"",""As many or as few as I wish"",""5% of my score on a random round"",""The length of the delay is based on how much more money I could have earned by planning and deciding better.""]",62928,313001,survey-multi-choice,A3SSHRVWPASGML,3NVC2EB65QZ385OT21BJ37UBS05Y32,29
492,"[True, True, True, True, True, True]","[""How many flights are there per round?"",""True or false: The hidden values will change each time I start a new round."",""How much does it cost to observe each hidden value?"",""How many hidden values am I allowed to observe in each round?"",""How is your bonus determined?"",""What does the feedback teach you?""]","[""3"",""True"",""$1.60"",""As many or as few as I wish"",""5% of my score on a random round"",""All of the above.""]",25413,439219,survey-multi-choice,A3SSHRVWPASGML,3NVC2EB65QZ385OT21BJ37UBS05Y32,29
503,"[False, True, True, True, True, True]","[""How many flights are there per round?"",""True or false: The hidden values will change each time I start a new round."",""How much does it cost to observe each hidden value?"",""How many hidden values am I allowed to observe in each round?"",""How is your bonus determined?"",""What does the feedback teach you?""]","[""4"",""True"",""$1.60"",""As many or as few as I wish"",""5% of my score on a random round"",""All of the above.""]",56833,132770,survey-multi-choice,A9VLWY4KW6OCB,3UNH76FOCS54URW38JGYZ63HSRMYMI,30
505,"[False, True, True, False, True, False]","[""How many flights are there per round?"",""True or false: The hidden values will change each time I start a new round."",""How much does it cost to observe each hidden value?"",""How many hidden values am I allowed to observe in each round?"",""How is your bonus determined?"",""What does the feedback teach you?""]","[""4"",""True"",""$1.60"",""At most 10"",""5% of my score on a random round"",""Whether I chose the move that was best according to the information I had.""]",27602,206339,survey-multi-choice,A9VLWY4KW6OCB,3UNH76FOCS54URW38JGYZ63HSRMYMI,30
507,"[False, True, True, False, True, True]","[""How many flights are there per round?"",""True or false: The hidden values will change each time I start a new round."",""How much does it cost to observe each hidden value?"",""How many hidden values am I allowed to observe in each round?"",""How is your bonus determined?"",""What does the feedback teach you?""]","[""4"",""True"",""$1.60"",""At most 1"",""5% of my score on a random round"",""All of the above.""]",20110,297336,survey-multi-choice,A9VLWY4KW6OCB,3UNH76FOCS54URW38JGYZ63HSRMYMI,30
509,"[True, True, True, True, True, True]","[""How many flights are there per round?"",""True or false: The hidden values will change each time I start a new round."",""How much does it cost to observe each hidden value?"",""How many hidden values am I allowed to observe in each round?"",""How is your bonus determined?"",""What does the feedback teach you?""]","[""3"",""True"",""$1.60"",""As many or as few as I wish"",""5% of my score on a random round"",""All of the above.""]",22032,375954,survey-multi-choice,A9VLWY4KW6OCB,3UNH76FOCS54URW38JGYZ63HSRMYMI,30
520,"[False, True, True, True, True, True]","[""How many flights are there per round?"",""True or false: The hidden values will change each time I start a new round."",""How much does it cost to observe each hidden value?"",""How many hidden values am I allowed to observe in each round?"",""How is your bonus determined?"",""What does the feedback teach you?""]","[""4"",""True"",""$1.60"",""As many or as few as I wish"",""5% of my score on a random round"",""All of the above.""]",31933,90869,survey-multi-choice,AADDOP3FHMAV1,3TVSS0C0E104IHRN2FZM0NDTBRIWTI,31
522,"[False, True, True, True, True, True]","[""How many flights are there per round?"",""True or false: The hidden values will change each time I start a new round."",""How much does it cost to observe each hidden value?"",""How many hidden values am I allowed to observe in each round?"",""How is your bonus determined?"",""What does the feedback teach you?""]","[""2"",""True"",""$1.60"",""As many or as few as I wish"",""5% of my score on a random round"",""All of the above.""]",25031,347029,survey-multi-choice,AADDOP3FHMAV1,3TVSS0C0E104IHRN2FZM0NDTBRIWTI,31
524,"[False, True, True, True, True, True]","[""How many flights are there per round?"",""True or false: The hidden values will change each time I start a new round."",""How much does it cost to observe each hidden value?"",""How many hidden values am I allowed to observe in each round?"",""How is your bonus determined?"",""What does the feedback teach you?""]","[""1"",""True"",""$1.60"",""As many or as few as I wish"",""5% of my score on a random round"",""All of the above.""]",12055,382914,survey-multi-choice,AADDOP3FHMAV1,3TVSS0C0E104IHRN2FZM0NDTBRIWTI,31
526,"[True, True, True, True, True, True]","[""How many flights are there per round?"",""True or false: The hidden values will change each time I start a new round."",""How much does it cost to observe each hidden value?"",""How many hidden values am I allowed to observe in each round?"",""How is your bonus determined?"",""What does the feedback teach you?""]","[""3"",""True"",""$1.60"",""As many or as few as I wish"",""5% of my score on a random round"",""All of the above.""]",15259,434196,survey-multi-choice,AADDOP3FHMAV1,3TVSS0C0E104IHRN2FZM0NDTBRIWTI,31
537,"[False, True, True, True, True, True]","[""How many flights are there per round?"",""True or false: The hidden values will change each time I start a new round."",""How much does it cost to observe each hidden value?"",""How many hidden values am I allowed to observe in each round?"",""How is your bonus determined?"",""What does the feedback teach you?""]","[""1"",""True"",""$1.60"",""As many or as few as I wish"",""5% of my score on a random round"",""All of the above.""]",28778,170281,survey-multi-choice,AHPOUVK6YUTK1,3JJVG1YBEBXA9CIM6SLSATUULNEB5Q,32
539,"[False, True, True, True, True, False]","[""How many flights are there per round?"",""True or false: The hidden values will change each time I start a new round."",""How much does it cost to observe each hidden value?"",""How many hidden values am I allowed to observe in each round?"",""How is your bonus determined?"",""What does the feedback teach you?""]","[""1"",""True"",""$1.60"",""As many or as few as I wish"",""5% of my score on a random round"",""Whether I chose the move that was best according to the information I had.""]",30880,284728,survey-multi-choice,AHPOUVK6YUTK1,3JJVG1YBEBXA9CIM6SLSATUULNEB5Q,32
541,"[True, True, True, True, True, True]","[""How many flights are there per round?"",""True or false: The hidden values will change each time I start a new round."",""How much does it cost to observe each hidden value?"",""How many hidden values am I allowed to observe in each round?"",""How is your bonus determined?"",""What does the feedback teach you?""]","[""3"",""True"",""$1.60"",""As many or as few as I wish"",""5% of my score on a random round"",""All of the above.""]",32561,386106,survey-multi-choice,AHPOUVK6YUTK1,3JJVG1YBEBXA9CIM6SLSATUULNEB5Q,32
552,"[False, True, True, True, True, True]","[""How many flights are there per round?"",""True or false: The hidden values will change each time I start a new round."",""How much does it cost to observe each hidden value?"",""How many hidden values am I allowed to observe in each round?"",""How is your bonus determined?"",""What does the feedback teach you?""]","[""1"",""True"",""$1.60"",""As many or as few as I wish"",""5% of my score on a random round"",""All of the above.""]",44713,173502,survey-multi-choice,AKZ8SFOAI4RZN,3S96KQ6I9M459BRWLKUW8ZO84BCDTQ,33
554,"[True, True, True, True, True, True]","[""How many flights are there per round?"",""True or false: The hidden values will change each time I start a new round."",""How much does it cost to observe each hidden value?"",""How many hidden values am I allowed to observe in each round?"",""How is your bonus determined?"",""What does the feedback teach you?""]","[""3"",""True"",""$1.60"",""As many or as few as I wish"",""5% of my score on a random round"",""All of the above.""]",12049,224560,survey-multi-choice,AKZ8SFOAI4RZN,3S96KQ6I9M459BRWLKUW8ZO84BCDTQ,33
565,"[False, True, True, False, False, False]","[""How many flights are there per round?"",""True or false: The hidden values will change each time I start a new round."",""How much does it cost to observe each hidden value?"",""How many hidden values am I allowed to observe in each round?"",""How is your bonus determined?"",""What does the feedback teach you?""]","[""1"",""True"",""$1.60"",""At most 1"",""10% of my best score on any round"",""The length of the delay is based on how much more money I could have earned by planning and deciding better.""]",28163,86366,survey-multi-choice,AMEX6UDG3WZWK,3ERET4BTVM9U32OSFVB2LCIMUD6K9A,34
567,"[False, True, True, True, False, False]","[""How many flights are there per round?"",""True or false: The hidden values will change each time I start a new round."",""How much does it cost to observe each hidden value?"",""How many hidden values am I allowed to observe in each round?"",""How is your bonus determined?"",""What does the feedback teach you?""]","[""2"",""True"",""$1.60"",""As many or as few as I wish"",""5% of my best score on any round"",""Whether I chose the move that was best according to the information I had.""]",173424,295000,survey-multi-choice,AMEX6UDG3WZWK,3ERET4BTVM9U32OSFVB2LCIMUD6K9A,34
569,"[False, True, True, True, False, True]","[""How many flights are there per round?"",""True or false: The hidden values will change each time I start a new round."",""How much does it cost to observe each hidden value?"",""How many hidden values am I allowed to observe in each round?"",""How is your bonus determined?"",""What does the feedback teach you?""]","[""2"",""True"",""$1.60"",""As many or as few as I wish"",""5% of my best score on any round"",""All of the above.""]",16521,319896,survey-multi-choice,AMEX6UDG3WZWK,3ERET4BTVM9U32OSFVB2LCIMUD6K9A,34
571,"[False, True, True, True, False, False]","[""How many flights are there per round?"",""True or false: The hidden values will change each time I start a new round."",""How much does it cost to observe each hidden value?"",""How many hidden values am I allowed to observe in each round?"",""How is your bonus determined?"",""What does the feedback teach you?""]","[""2"",""True"",""$1.60"",""As many or as few as I wish"",""5% of my best score on any round"",""Whether I chose the move that was best according to the information I had.""]",17656,345080,survey-multi-choice,AMEX6UDG3WZWK,3ERET4BTVM9U32OSFVB2LCIMUD6K9A,34
573,"[False, True, True, True, False, False]","[""How many flights are there per round?"",""True or false: The hidden values will change each time I start a new round."",""How much does it cost to observe each hidden value?"",""How many hidden values am I allowed to observe in each round?"",""How is your bonus determined?"",""What does the feedback teach you?""]","[""1"",""True"",""$1.60"",""As many or as few as I wish"",""5% of my best score on any round"",""The length of the delay is based on how much more money I could have earned by planning and deciding better.""]",8901,372593,survey-multi-choice,AMEX6UDG3WZWK,3ERET4BTVM9U32OSFVB2LCIMUD6K9A,34
575,"[False, True, True, True, False, False]","[""How many flights are there per round?"",""True or false: The hidden values will change each time I start a new round."",""How much does it cost to observe each hidden value?"",""How many hidden values am I allowed to observe in each round?"",""How is your bonus determined?"",""What does the feedback teach you?""]","[""1"",""True"",""$1.60"",""As many or as few as I wish"",""5% of my best score on any round"",""Whether I observed the rewards of relevant locations.""]",13763,412282,survey-multi-choice,AMEX6UDG3WZWK,3ERET4BTVM9U32OSFVB2LCIMUD6K9A,34
577,"[False, True, True, True, False, False]","[""How many flights are there per round?"",""True or false: The hidden values will change each time I start a new round."",""How much does it cost to observe each hidden value?"",""How many hidden values am I allowed to observe in each round?"",""How is your bonus determined?"",""What does the feedback teach you?""]","[""1"",""True"",""$1.60"",""As many or as few as I wish"",""5% of my best score on any round"",""Whether I chose the move that was best according to the information I had.""]",25586,493899,survey-multi-choice,AMEX6UDG3WZWK,3ERET4BTVM9U32OSFVB2LCIMUD6K9A,34
579,"[False, True, True, True, True, True]","[""How many flights are there per round?"",""True or false: The hidden values will change each time I start a new round."",""How much does it cost to observe each hidden value?"",""How many hidden values am I allowed to observe in each round?"",""How is your bonus determined?"",""What does the feedback teach you?""]","[""1"",""True"",""$1.60"",""As many or as few as I wish"",""5% of my score on a random round"",""All of the above.""]",63571,571507,survey-multi-choice,AMEX6UDG3WZWK,3ERET4BTVM9U32OSFVB2LCIMUD6K9A,34
581,"[False, True, True, True, True, False]","[""How many flights are there per round?"",""True or false: The hidden values will change each time I start a new round."",""How much does it cost to observe each hidden value?"",""How many hidden values am I allowed to observe in each round?"",""How is your bonus determined?"",""What does the feedback teach you?""]","[""1"",""True"",""$1.60"",""As many or as few as I wish"",""5% of my score on a random round"",""Whether I observed the rewards of relevant locations.""]",6921,586267,survey-multi-choice,AMEX6UDG3WZWK,3ERET4BTVM9U32OSFVB2LCIMUD6K9A,34
583,"[False, True, True, True, True, False]","[""How many flights are there per round?"",""True or false: The hidden values will change each time I start a new round."",""How much does it cost to observe each hidden value?"",""How many hidden values am I allowed to observe in each round?"",""How is your bonus determined?"",""What does the feedback teach you?""]","[""1"",""True"",""$1.60"",""As many or as few as I wish"",""5% of my score on a random round"",""Whether I chose the move that was best according to the information I had.""]",5018,597963,survey-multi-choice,AMEX6UDG3WZWK,3ERET4BTVM9U32OSFVB2LCIMUD6K9A,34
585,"[False, True, True, True, True, False]","[""How many flights are there per round?"",""True or false: The hidden values will change each time I start a new round."",""How much does it cost to observe each hidden value?"",""How many hidden values am I allowed to observe in each round?"",""How is your bonus determined?"",""What does the feedback teach you?""]","[""1"",""True"",""$1.60"",""As many or as few as I wish"",""5% of my score on a random round"",""The length of the delay is based on how much more money I could have earned by planning and deciding better.""]",5361,666268,survey-multi-choice,AMEX6UDG3WZWK,3ERET4BTVM9U32OSFVB2LCIMUD6K9A,34
587,"[False, True, True, True, True, True]","[""How many flights are there per round?"",""True or false: The hidden values will change each time I start a new round."",""How much does it cost to observe each hidden value?"",""How many hidden values am I allowed to observe in each round?"",""How is your bonus determined?"",""What does the feedback teach you?""]","[""2"",""True"",""$1.60"",""As many or as few as I wish"",""5% of my score on a random round"",""All of the above.""]",6781,679420,survey-multi-choice,AMEX6UDG3WZWK,3ERET4BTVM9U32OSFVB2LCIMUD6K9A,34
589,"[False, True, True, True, True, False]","[""How many flights are there per round?"",""True or false: The hidden values will change each time I start a new round."",""How much does it cost to observe each hidden value?"",""How many hidden values am I allowed to observe in each round?"",""How is your bonus determined?"",""What does the feedback teach you?""]","[""2"",""True"",""$1.60"",""As many or as few as I wish"",""5% of my score on a random round"",""The length of the delay is based on how much more money I could have earned by planning and deciding better.""]",6372,692388,survey-multi-choice,AMEX6UDG3WZWK,3ERET4BTVM9U32OSFVB2LCIMUD6K9A,34
591,"[False, True, True, True, True, False]","[""How many flights are there per round?"",""True or false: The hidden values will change each time I start a new round."",""How much does it cost to observe each hidden value?"",""How many hidden values am I allowed to observe in each round?"",""How is your bonus determined?"",""What does the feedback teach you?""]","[""2"",""True"",""$1.60"",""As many or as few as I wish"",""5% of my score on a random round"",""Whether I chose the move that was best according to the information I had.""]",5312,704364,survey-multi-choice,AMEX6UDG3WZWK,3ERET4BTVM9U32OSFVB2LCIMUD6K9A,34
593,"[False, True, True, True, True, False]","[""How many flights are there per round?"",""True or false: The hidden values will change each time I start a new round."",""How much does it cost to observe each hidden value?"",""How many hidden values am I allowed to observe in each round?"",""How is your bonus determined?"",""What does the feedback teach you?""]","[""2"",""True"",""$1.60"",""As many or as few as I wish"",""5% of my score on a random round"",""The length of the delay is based on how much more money I could have earned by planning and deciding better.""]",5860,717157,survey-multi-choice,AMEX6UDG3WZWK,3ERET4BTVM9U32OSFVB2LCIMUD6K9A,34
595,"[False, True, True, True, True, True]","[""How many flights are there per round?"",""True or false: The hidden values will change each time I start a new round."",""How much does it cost to observe each hidden value?"",""How many hidden values am I allowed to observe in each round?"",""How is your bonus determined?"",""What does the feedback teach you?""]","[""4"",""True"",""$1.60"",""As many or as few as I wish"",""5% of my score on a random round"",""All of the above.""]",5905,730164,survey-multi-choice,AMEX6UDG3WZWK,3ERET4BTVM9U32OSFVB2LCIMUD6K9A,34
597,"[False, True, True, True, True, False]","[""How many flights are there per round?"",""True or false: The hidden values will change each time I start a new round."",""How much does it cost to observe each hidden value?"",""How many hidden values am I allowed to observe in each round?"",""How is your bonus determined?"",""What does the feedback teach you?""]","[""4"",""True"",""$1.60"",""As many or as few as I wish"",""5% of my score on a random round"",""Whether I observed the rewards of relevant locations.""]",5753,743244,survey-multi-choice,AMEX6UDG3WZWK,3ERET4BTVM9U32OSFVB2LCIMUD6K9A,34
599,"[False, True, True, True, True, False]","[""How many flights are there per round?"",""True or false: The hidden values will change each time I start a new round."",""How much does it cost to observe each hidden value?"",""How many hidden values am I allowed to observe in each round?"",""How is your bonus determined?"",""What does the feedback teach you?""]","[""4"",""True"",""$1.60"",""As many or as few as I wish"",""5% of my score on a random round"",""Whether I chose the move that was best according to the information I had.""]",5391,755293,survey-multi-choice,AMEX6UDG3WZWK,3ERET4BTVM9U32OSFVB2LCIMUD6K9A,34
601,"[False, True, True, True, True, False]","[""How many flights are there per round?"",""True or false: The hidden values will change each time I start a new round."",""How much does it cost to observe each hidden value?"",""How many hidden values am I allowed to observe in each round?"",""How is your bonus determined?"",""What does the feedback teach you?""]","[""4"",""True"",""$1.60"",""As many or as few as I wish"",""5% of my score on a random round"",""The length of the delay is based on how much more money I could have earned by planning and deciding better.""]",5711,768541,survey-multi-choice,AMEX6UDG3WZWK,3ERET4BTVM9U32OSFVB2LCIMUD6K9A,34
603,"[True, True, True, True, True, True]","[""How many flights are there per round?"",""True or false: The hidden values will change each time I start a new round."",""How much does it cost to observe each hidden value?"",""How many hidden values am I allowed to observe in each round?"",""How is your bonus determined?"",""What does the feedback teach you?""]","[""3"",""True"",""$1.60"",""As many or as few as I wish"",""5% of my score on a random round"",""All of the above.""]",14984,789119,survey-multi-choice,AMEX6UDG3WZWK,3ERET4BTVM9U32OSFVB2LCIMUD6K9A,34
614,"[False, True, True, True, False, False]","[""How many flights are there per round?"",""True or false: The hidden values will change each time I start a new round."",""How much does it cost to observe each hidden value?"",""How many hidden values am I allowed to observe in each round?"",""How is your bonus determined?"",""What does the feedback teach you?""]","[""1"",""True"",""$1.60"",""As many or as few as I wish"",""5% of my best score on any round"",""The length of the delay is based on how much more money I could have earned by planning and deciding better.""]",50737,240655,survey-multi-choice,AV8YCU0R4D94I,3LRLIPTPEQ988LYX71P2H7T60VPKAQ,35
616,"[False, True, True, True, True, True]","[""How many flights are there per round?"",""True or false: The hidden values will change each time I start a new round."",""How much does it cost to observe each hidden value?"",""How many hidden values am I allowed to observe in each round?"",""How is your bonus determined?"",""What does the feedback teach you?""]","[""1"",""True"",""$1.60"",""As many or as few as I wish"",""5% of my score on a random round"",""All of the above.""]",32149,407418,survey-multi-choice,AV8YCU0R4D94I,3LRLIPTPEQ988LYX71P2H7T60VPKAQ,35
618,"[False, True, True, True, True, True]","[""How many flights are there per round?"",""True or false: The hidden values will change each time I start a new round."",""How much does it cost to observe each hidden value?"",""How many hidden values am I allowed to observe in each round?"",""How is your bonus determined?"",""What does the feedback teach you?""]","[""4"",""True"",""$1.60"",""As many or as few as I wish"",""5% of my score on a random round"",""All of the above.""]",38367,459211,survey-multi-choice,AV8YCU0R4D94I,3LRLIPTPEQ988LYX71P2H7T60VPKAQ,35
620,"[True, True, True, True, True, True]","[""How many flights are there per round?"",""True or false: The hidden values will change each time I start a new round."",""How much does it cost to observe each hidden value?"",""How many hidden values am I allowed to observe in each round?"",""How is your bonus determined?"",""What does the feedback teach you?""]","[""3"",""True"",""$1.60"",""As many or as few as I wish"",""5% of my score on a random round"",""All of the above.""]",13203,488629,survey-multi-choice,AV8YCU0R4D94I,3LRLIPTPEQ988LYX71P2H7T60VPKAQ,35
631,"[False, True, True, True, True]","[""How many flights are there per round?"",""True or false: The hidden values will change each time I start a new round."",""How much does it cost to observe each hidden value?"",""How many hidden values am I allowed to observe in each round?"",""How is your bonus determined?""]","[""1"",""True"",""$1.60"",""As many or as few as I wish"",""5% of my score on a random round""]",16161,120709,survey-multi-choice,AY8Q6SAWGFLGU,3YGXWBAF70HBNY6S6NYDGLUY3CJ4CL,36
633,"[False, True, True, True, True]","[""How many flights are there per round?"",""True or false: The hidden values will change each time I start a new round."",""How much does it cost to observe each hidden value?"",""How many hidden values am I allowed to observe in each round?"",""How is your bonus determined?""]","[""2"",""True"",""$1.60"",""As many or as few as I wish"",""5% of my score on a random round""]",52451,186078,survey-multi-choice,AY8Q6SAWGFLGU,3YGXWBAF70HBNY6S6NYDGLUY3CJ4CL,36
635,"[True, True, True, True, True]","[""How many flights are there per round?"",""True or false: The hidden values will change each time I start a new round."",""How much does it cost to observe each hidden value?"",""How many hidden values am I allowed to observe in each round?"",""How is your bonus determined?""]","[""3"",""True"",""$1.60"",""As many or as few as I wish"",""5% of my score on a random round""]",12975,211365,survey-multi-choice,AY8Q6SAWGFLGU,3YGXWBAF70HBNY6S6NYDGLUY3CJ4CL,36
646,"[False, True, True, True, True]","[""How many flights are there per round?"",""True or false: The hidden values will change each time I start a new round."",""How much does it cost to observe each hidden value?"",""How many hidden values am I allowed to observe in each round?"",""How is your bonus determined?""]","[""1"",""True"",""$1.60"",""As many or as few as I wish"",""5% of my score on a random round""]",25870,150924,survey-multi-choice,AYIFHDQSXQJ6B,3LUY3GC63Z0R0AXFDQIQ3XDFTXOP74,37
648,"[False, True, True, True, True]","[""How many flights are there per round?"",""True or false: The hidden values will change each time I start a new round."",""How much does it cost to observe each hidden value?"",""How many hidden values am I allowed to observe in each round?"",""How is your bonus determined?""]","[""4"",""True"",""$1.60"",""As many or as few as I wish"",""5% of my score on a random round""]",192125,432419,survey-multi-choice,AYIFHDQSXQJ6B,3LUY3GC63Z0R0AXFDQIQ3XDFTXOP74,37
650,"[False, True, True, True, True]","[""How many flights are there per round?"",""True or false: The hidden values will change each time I start a new round."",""How much does it cost to observe each hidden value?"",""How many hidden values am I allowed to observe in each round?"",""How is your bonus determined?""]","[""4"",""True"",""$1.60"",""As many or as few as I wish"",""5% of my score on a random round""]",9527,459763,survey-multi-choice,AYIFHDQSXQJ6B,3LUY3GC63Z0R0AXFDQIQ3XDFTXOP74,37
652,"[False, True, True, True, False]","[""How many flights are there per round?"",""True or false: The hidden values will change each time I start a new round."",""How much does it cost to observe each hidden value?"",""How many hidden values am I allowed to observe in each round?"",""How is your bonus determined?""]","[""4"",""True"",""$1.60"",""As many or as few as I wish"",""5% of my best score on any round""]",11011,479487,survey-multi-choice,AYIFHDQSXQJ6B,3LUY3GC63Z0R0AXFDQIQ3XDFTXOP74,37
654,"[False, True, True, True, True]","[""How many flights are there per round?"",""True or false: The hidden values will change each time I start a new round."",""How much does it cost to observe each hidden value?"",""How many hidden values am I allowed to observe in each round?"",""How is your bonus determined?""]","[""1"",""True"",""$1.60"",""As many or as few as I wish"",""5% of my score on a random round""]",12657,500361,survey-multi-choice,AYIFHDQSXQJ6B,3LUY3GC63Z0R0AXFDQIQ3XDFTXOP74,37
656,"[False, True, True, True, True]","[""How many flights are there per round?"",""True or false: The hidden values will change each time I start a new round."",""How much does it cost to observe each hidden value?"",""How many hidden values am I allowed to observe in each round?"",""How is your bonus determined?""]","[""2"",""True"",""$1.60"",""As many or as few as I wish"",""5% of my score on a random round""]",8196,515021,survey-multi-choice,AYIFHDQSXQJ6B,3LUY3GC63Z0R0AXFDQIQ3XDFTXOP74,37
658,"[False, True, True, True, True]","[""How many flights are there per round?"",""True or false: The hidden values will change each time I start a new round."",""How much does it cost to observe each hidden value?"",""How many hidden values am I allowed to observe in each round?"",""How is your bonus determined?""]","[""2"",""True"",""$1.60"",""As many or as few as I wish"",""5% of my score on a random round""]",7718,531475,survey-multi-choice,AYIFHDQSXQJ6B,3LUY3GC63Z0R0AXFDQIQ3XDFTXOP74,37
660,"[True, True, True, True, True]","[""How many flights are there per round?"",""True or false: The hidden values will change each time I start a new round."",""How much does it cost to observe each hidden value?"",""How many hidden values am I allowed to observe in each round?"",""How is your bonus determined?""]","[""3"",""True"",""$1.60"",""As many or as few as I wish"",""5% of my score on a random round""]",13537,550263,survey-multi-choice,AYIFHDQSXQJ6B,3LUY3GC63Z0R0AXFDQIQ3XDFTXOP74,37
671,"[False, True, True, True, True]","[""How many flights are there per round?"",""True or false: The hidden values will change each time I start a new round."",""How much does it cost to observe each hidden value?"",""How many hidden values am I allowed to observe in each round?"",""How is your bonus determined?""]","[""1"",""True"",""$1.60"",""As many or as few as I wish"",""5% of my score on a random round""]",53007,377988,survey-multi-choice,AZGBKAM5JUV5A,34YB12FSQYO480B3EDUSS6WDNVWMG8,38
673,"[False, True, True, True, True]","[""How many flights are there per round?"",""True or false: The hidden values will change each time I start a new round."",""How much does it cost to observe each hidden value?"",""How many hidden values am I allowed to observe in each round?"",""How is your bonus determined?""]","[""2"",""True"",""$1.60"",""As many or as few as I wish"",""5% of my score on a random round""]",16575,438533,survey-multi-choice,AZGBKAM5JUV5A,34YB12FSQYO480B3EDUSS6WDNVWMG8,38
675,"[False, True, True, True, True]","[""How many flights are there per round?"",""True or false: The hidden values will change each time I start a new round."",""How much does it cost to observe each hidden value?"",""How many hidden values am I allowed to observe in each round?"",""How is your bonus determined?""]","[""4"",""True"",""$1.60"",""As many or as few as I wish"",""5% of my score on a random round""]",18145,465021,survey-multi-choice,AZGBKAM5JUV5A,34YB12FSQYO480B3EDUSS6WDNVWMG8,38
677,"[True, True, True, True, True]","[""How many flights are there per round?"",""True or false: The hidden values will change each time I start a new round."",""How much does it cost to observe each hidden value?"",""How many hidden values am I allowed to observe in each round?"",""How is your bonus determined?""]","[""3"",""True"",""$1.60"",""As many or as few as I wish"",""5% of my score on a random round""]",9232,480926,survey-multi-choice,AZGBKAM5JUV5A,34YB12FSQYO480B3EDUSS6WDNVWMG8,38
