,correct,questions,responses,rt,time_elapsed,trial_type,worker_id,assignment_id,pid
1,"[False, True, True, True, True]","[""How many flights are there per round?"",""True or false: The hidden values will change each time I start a new round."",""How much does it cost to observe each hidden value?"",""How many hidden values am I allowed to observe in each round?"",""How is your bonus determined?""]","[""1"",""True"",""$1.60"",""As many or as few as I wish"",""5% of my score on a random round""]",20989,131159,survey-multi-choice,A12O9P1OTMJOPW,3W92K5RLWUHPIQGSB9CSB5O1OFUV5G,0
3,"[True, True, True, True, True]","[""How many flights are there per round?"",""True or false: The hidden values will change each time I start a new round."",""How much does it cost to observe each hidden value?"",""How many hidden values am I allowed to observe in each round?"",""How is your bonus determined?""]","[""3"",""True"",""$1.60"",""As many or as few as I wish"",""5% of my score on a random round""]",97527,285707,survey-multi-choice,A12O9P1OTMJOPW,3W92K5RLWUHPIQGSB9CSB5O1OFUV5G,0
14,"[True, True, True, True, True]","[""How many flights are there per round?"",""True or false: The hidden values will change each time I start a new round."",""How much does it cost to observe each hidden value?"",""How many hidden values am I allowed to observe in each round?"",""How is your bonus determined?""]","[""3"",""True"",""$1.60"",""As many or as few as I wish"",""5% of my score on a random round""]",27377,110930,survey-multi-choice,A1F7TXGSWETWX0,3GS6S824SQX6N4M35JDARO71M9WWNH,1
25,"[False, True, True, True, True, True]","[""How many flights are there per round?"",""True or false: The hidden values will change each time I start a new round."",""How much does it cost to observe each hidden value?"",""How many hidden values am I allowed to observe in each round?"",""How is your bonus determined?"",""What does the feedback teach you?""]","[""1"",""True"",""$1.60"",""As many or as few as I wish"",""5% of my score on a random round"",""All of the above.""]",27580,99339,survey-multi-choice,A1G94QON7A9K0N,3A0EX8ZRN8O8B0S6HUQPLQSNGSKYBV,2
27,"[False, True, True, True, True, True]","[""How many flights are there per round?"",""True or false: The hidden values will change each time I start a new round."",""How much does it cost to observe each hidden value?"",""How many hidden values am I allowed to observe in each round?"",""How is your bonus determined?"",""What does the feedback teach you?""]","[""4"",""True"",""$1.60"",""As many or as few as I wish"",""5% of my score on a random round"",""All of the above.""]",43601,196367,survey-multi-choice,A1G94QON7A9K0N,3A0EX8ZRN8O8B0S6HUQPLQSNGSKYBV,2
29,"[True, True, True, True, True, True]","[""How many flights are there per round?"",""True or false: The hidden values will change each time I start a new round."",""How much does it cost to observe each hidden value?"",""How many hidden values am I allowed to observe in each round?"",""How is your bonus determined?"",""What does the feedback teach you?""]","[""3"",""True"",""$1.60"",""As many or as few as I wish"",""5% of my score on a random round"",""All of the above.""]",10663,222259,survey-multi-choice,A1G94QON7A9K0N,3A0EX8ZRN8O8B0S6HUQPLQSNGSKYBV,2
40,"[False, True, True, True, False]","[""How many flights are there per round?"",""True or false: The hidden values will change each time I start a new round."",""How much does it cost to observe each hidden value?"",""How many hidden values am I allowed to observe in each round?"",""How is your bonus determined?""]","[""1"",""True"",""$1.60"",""As many or as few as I wish"",""5% of my best score on any round""]",55602,219031,survey-multi-choice,A1GVMH6U54ZT8V,30OG32W0SUBC640CKJJ45I01F5RNES,3
42,"[False, True, True, True, True]","[""How many flights are there per round?"",""True or false: The hidden values will change each time I start a new round."",""How much does it cost to observe each hidden value?"",""How many hidden values am I allowed to observe in each round?"",""How is your bonus determined?""]","[""1"",""True"",""$1.60"",""As many or as few as I wish"",""5% of my score on a random round""]",18248,505920,survey-multi-choice,A1GVMH6U54ZT8V,30OG32W0SUBC640CKJJ45I01F5RNES,3
44,"[True, True, True, True, True]","[""How many flights are there per round?"",""True or false: The hidden values will change each time I start a new round."",""How much does it cost to observe each hidden value?"",""How many hidden values am I allowed to observe in each round?"",""How is your bonus determined?""]","[""3"",""True"",""$1.60"",""As many or as few as I wish"",""5% of my score on a random round""]",12684,556654,survey-multi-choice,A1GVMH6U54ZT8V,30OG32W0SUBC640CKJJ45I01F5RNES,3
55,"[True, True, True, True, True]","[""How many flights are there per round?"",""True or false: The hidden values will change each time I start a new round."",""How much does it cost to observe each hidden value?"",""How many hidden values am I allowed to observe in each round?"",""How is your bonus determined?""]","[""3"",""True"",""$1.60"",""As many or as few as I wish"",""5% of my score on a random round""]",87227,177754,survey-multi-choice,A1MV2B8I02QVOE,3LPW2N6LKT2P5BRS6J2NFJMIA7KU5N,4
66,"[True, True, True, False, False, False]","[""How many flights are there per round?"",""True or false: The hidden values will change each time I start a new round."",""How much does it cost to observe each hidden value?"",""How many hidden values am I allowed to observe in each round?"",""How is your bonus determined?"",""What does the feedback teach you?""]","[""3"",""True"",""$1.60"",""At most 10"",""10% of my total score on all rounds"",""The length of the delay is based on how much more money I could have earned by planning and deciding better.""]",8483,331400,survey-multi-choice,A1R3W25JDAUQ09,392CY0QWG1R201SSYXUZROSTGH34IN,5
68,"[False, True, True, True, False, True]","[""How many flights are there per round?"",""True or false: The hidden values will change each time I start a new round."",""How much does it cost to observe each hidden value?"",""How many hidden values am I allowed to observe in each round?"",""How is your bonus determined?"",""What does the feedback teach you?""]","[""4"",""True"",""$1.60"",""As many or as few as I wish"",""5% of my best score on any round"",""All of the above.""]",18903,380751,survey-multi-choice,A1R3W25JDAUQ09,392CY0QWG1R201SSYXUZROSTGH34IN,5
70,"[True, True, True, True, True, True]","[""How many flights are there per round?"",""True or false: The hidden values will change each time I start a new round."",""How much does it cost to observe each hidden value?"",""How many hidden values am I allowed to observe in each round?"",""How is your bonus determined?"",""What does the feedback teach you?""]","[""3"",""True"",""$1.60"",""As many or as few as I wish"",""5% of my score on a random round"",""All of the above.""]",122662,623427,survey-multi-choice,A1R3W25JDAUQ09,392CY0QWG1R201SSYXUZROSTGH34IN,5
81,"[True, True, True, True, False, False]","[""How many flights are there per round?"",""True or false: The hidden values will change each time I start a new round."",""How much does it cost to observe each hidden value?"",""How many hidden values am I allowed to observe in each round?"",""How is your bonus determined?"",""What does the feedback teach you?""]","[""3"",""True"",""$1.60"",""As many or as few as I wish"",""5% of my best score on any round"",""The length of the delay is based on how much more money I could have earned by planning and deciding better.""]",49612,171665,survey-multi-choice,A1RG8PCK9V4QP,3QAVNHZ3EM4JSRGFS113W76LPVUALJ,6
83,"[True, True, True, True, False, True]","[""How many flights are there per round?"",""True or false: The hidden values will change each time I start a new round."",""How much does it cost to observe each hidden value?"",""How many hidden values am I allowed to observe in each round?"",""How is your bonus determined?"",""What does the feedback teach you?""]","[""3"",""True"",""$1.60"",""As many or as few as I wish"",""5% of my best score on any round"",""All of the above.""]",23264,258529,survey-multi-choice,A1RG8PCK9V4QP,3QAVNHZ3EM4JSRGFS113W76LPVUALJ,6
85,"[True, True, True, True, False, False]","[""How many flights are there per round?"",""True or false: The hidden values will change each time I start a new round."",""How much does it cost to observe each hidden value?"",""How many hidden values am I allowed to observe in each round?"",""How is your bonus determined?"",""What does the feedback teach you?""]","[""3"",""True"",""$1.60"",""As many or as few as I wish"",""5% of my best score on any round"",""Whether I observed the rewards of relevant locations.""]",18429,291492,survey-multi-choice,A1RG8PCK9V4QP,3QAVNHZ3EM4JSRGFS113W76LPVUALJ,6
87,"[True, True, True, True, True, True]","[""How many flights are there per round?"",""True or false: The hidden values will change each time I start a new round."",""How much does it cost to observe each hidden value?"",""How many hidden values am I allowed to observe in each round?"",""How is your bonus determined?"",""What does the feedback teach you?""]","[""3"",""True"",""$1.60"",""As many or as few as I wish"",""5% of my score on a random round"",""All of the above.""]",21650,404194,survey-multi-choice,A1RG8PCK9V4QP,3QAVNHZ3EM4JSRGFS113W76LPVUALJ,6
98,"[False, True, True, True, True]","[""How many flights are there per round?"",""True or false: The hidden values will change each time I start a new round."",""How much does it cost to observe each hidden value?"",""How many hidden values am I allowed to observe in each round?"",""How is your bonus determined?""]","[""1"",""True"",""$1.60"",""As many or as few as I wish"",""5% of my score on a random round""]",22422,96925,survey-multi-choice,A1RPQXFV02P72A,3UXUOQ9OKEXKD6RDO70TD2OKUBPA7A,7
100,"[False, True, True, True, True]","[""How many flights are there per round?"",""True or false: The hidden values will change each time I start a new round."",""How much does it cost to observe each hidden value?"",""How many hidden values am I allowed to observe in each round?"",""How is your bonus determined?""]","[""2"",""True"",""$1.60"",""As many or as few as I wish"",""5% of my score on a random round""]",19083,155310,survey-multi-choice,A1RPQXFV02P72A,3UXUOQ9OKEXKD6RDO70TD2OKUBPA7A,7
102,"[True, True, True, True, True]","[""How many flights are there per round?"",""True or false: The hidden values will change each time I start a new round."",""How much does it cost to observe each hidden value?"",""How many hidden values am I allowed to observe in each round?"",""How is your bonus determined?""]","[""3"",""True"",""$1.60"",""As many or as few as I wish"",""5% of my score on a random round""]",13708,195426,survey-multi-choice,A1RPQXFV02P72A,3UXUOQ9OKEXKD6RDO70TD2OKUBPA7A,7
113,"[False, True, True, True, False, True]","[""How many flights are there per round?"",""True or false: The hidden values will change each time I start a new round."",""How much does it cost to observe each hidden value?"",""How many hidden values am I allowed to observe in each round?"",""How is your bonus determined?"",""What does the feedback teach you?""]","[""1"",""True"",""$1.60"",""As many or as few as I wish"",""5% of my best score on any round"",""All of the above.""]",22396,60423,survey-multi-choice,A1SL65Z68BK1UT,351SEKWQS0H1WG1CCNTKMLTGA3GMDY,8
115,"[False, True, True, True, False, True]","[""How many flights are there per round?"",""True or false: The hidden values will change each time I start a new round."",""How much does it cost to observe each hidden value?"",""How many hidden values am I allowed to observe in each round?"",""How is your bonus determined?"",""What does the feedback teach you?""]","[""2"",""True"",""$1.60"",""As many or as few as I wish"",""5% of my best score on any round"",""All of the above.""]",13550,94172,survey-multi-choice,A1SL65Z68BK1UT,351SEKWQS0H1WG1CCNTKMLTGA3GMDY,8
117,"[True, True, True, True, True, True]","[""How many flights are there per round?"",""True or false: The hidden values will change each time I start a new round."",""How much does it cost to observe each hidden value?"",""How many hidden values am I allowed to observe in each round?"",""How is your bonus determined?"",""What does the feedback teach you?""]","[""3"",""True"",""$1.60"",""As many or as few as I wish"",""5% of my score on a random round"",""All of the above.""]",11545,156235,survey-multi-choice,A1SL65Z68BK1UT,351SEKWQS0H1WG1CCNTKMLTGA3GMDY,8
128,"[False, True, True, True, True, True]","[""How many flights are there per round?"",""True or false: The hidden values will change each time I start a new round."",""How much does it cost to observe each hidden value?"",""How many hidden values am I allowed to observe in each round?"",""How is your bonus determined?"",""What does the feedback teach you?""]","[""4"",""True"",""$1.60"",""As many or as few as I wish"",""5% of my score on a random round"",""All of the above.""]",62322,198725,survey-multi-choice,A1TNOYRQG5VT7D,3O7L7BFSHEPKS3PLN36C0A4KT6YEI4,9
130,"[True, True, True, True, True, True]","[""How many flights are there per round?"",""True or false: The hidden values will change each time I start a new round."",""How much does it cost to observe each hidden value?"",""How many hidden values am I allowed to observe in each round?"",""How is your bonus determined?"",""What does the feedback teach you?""]","[""3"",""True"",""$1.60"",""As many or as few as I wish"",""5% of my score on a random round"",""All of the above.""]",22525,250402,survey-multi-choice,A1TNOYRQG5VT7D,3O7L7BFSHEPKS3PLN36C0A4KT6YEI4,9
141,"[False, False, True, True, True, False]","[""How many flights are there per round?"",""True or false: The hidden values will change each time I start a new round."",""How much does it cost to observe each hidden value?"",""How many hidden values am I allowed to observe in each round?"",""How is your bonus determined?"",""What does the feedback teach you?""]","[""2"",""False"",""$1.60"",""As many or as few as I wish"",""5% of my score on a random round"",""Whether I chose the move that was best according to the information I had.""]",63892,220668,survey-multi-choice,A23RGG9LXG380R,3R3YRB5GRF3MBH391FT4NU242MMUAW,10
143,"[False, False, True, True, True, True]","[""How many flights are there per round?"",""True or false: The hidden values will change each time I start a new round."",""How much does it cost to observe each hidden value?"",""How many hidden values am I allowed to observe in each round?"",""How is your bonus determined?"",""What does the feedback teach you?""]","[""2"",""False"",""$1.60"",""As many or as few as I wish"",""5% of my score on a random round"",""All of the above.""]",20891,312494,survey-multi-choice,A23RGG9LXG380R,3R3YRB5GRF3MBH391FT4NU242MMUAW,10
145,"[False, True, True, True, True, True]","[""How many flights are there per round?"",""True or false: The hidden values will change each time I start a new round."",""How much does it cost to observe each hidden value?"",""How many hidden values am I allowed to observe in each round?"",""How is your bonus determined?"",""What does the feedback teach you?""]","[""2"",""True"",""$1.60"",""As many or as few as I wish"",""5% of my score on a random round"",""All of the above.""]",25926,372197,survey-multi-choice,A23RGG9LXG380R,3R3YRB5GRF3MBH391FT4NU242MMUAW,10
147,"[False, False, True, True, True, True]","[""How many flights are there per round?"",""True or false: The hidden values will change each time I start a new round."",""How much does it cost to observe each hidden value?"",""How many hidden values am I allowed to observe in each round?"",""How is your bonus determined?"",""What does the feedback teach you?""]","[""2"",""False"",""$1.60"",""As many or as few as I wish"",""5% of my score on a random round"",""All of the above.""]",20622,406583,survey-multi-choice,A23RGG9LXG380R,3R3YRB5GRF3MBH391FT4NU242MMUAW,10
149,"[False, True, True, True, True, False]","[""How many flights are there per round?"",""True or false: The hidden values will change each time I start a new round."",""How much does it cost to observe each hidden value?"",""How many hidden values am I allowed to observe in each round?"",""How is your bonus determined?"",""What does the feedback teach you?""]","[""2"",""True"",""$1.60"",""As many or as few as I wish"",""5% of my score on a random round"",""Whether I observed the rewards of relevant locations.""]",20109,459675,survey-multi-choice,A23RGG9LXG380R,3R3YRB5GRF3MBH391FT4NU242MMUAW,10
151,"[True, False, True, True, True, True]","[""How many flights are there per round?"",""True or false: The hidden values will change each time I start a new round."",""How much does it cost to observe each hidden value?"",""How many hidden values am I allowed to observe in each round?"",""How is your bonus determined?"",""What does the feedback teach you?""]","[""3"",""False"",""$1.60"",""As many or as few as I wish"",""5% of my score on a random round"",""All of the above.""]",25331,514418,survey-multi-choice,A23RGG9LXG380R,3R3YRB5GRF3MBH391FT4NU242MMUAW,10
153,"[True, True, True, True, True, True]","[""How many flights are there per round?"",""True or false: The hidden values will change each time I start a new round."",""How much does it cost to observe each hidden value?"",""How many hidden values am I allowed to observe in each round?"",""How is your bonus determined?"",""What does the feedback teach you?""]","[""3"",""True"",""$1.60"",""As many or as few as I wish"",""5% of my score on a random round"",""All of the above.""]",16107,541348,survey-multi-choice,A23RGG9LXG380R,3R3YRB5GRF3MBH391FT4NU242MMUAW,10
164,"[True, True, True, True, False, True]","[""How many flights are there per round?"",""True or false: The hidden values will change each time I start a new round."",""How much does it cost to observe each hidden value?"",""How many hidden values am I allowed to observe in each round?"",""How is your bonus determined?"",""What does the feedback teach you?""]","[""3"",""True"",""$1.60"",""As many or as few as I wish"",""5% of my best score on any round"",""All of the above.""]",17660,28479,survey-multi-choice,A29ZV4XJB7R1O,3QL2OFSM96IX96GYOSD9FU0YUTFCNP,11
166,"[True, True, True, True, False, False]","[""How many flights are there per round?"",""True or false: The hidden values will change each time I start a new round."",""How much does it cost to observe each hidden value?"",""How many hidden values am I allowed to observe in each round?"",""How is your bonus determined?"",""What does the feedback teach you?""]","[""3"",""True"",""$1.60"",""As many or as few as I wish"",""5% of my best score on any round"",""Whether I chose the move that was best according to the information I had.""]",37018,86145,survey-multi-choice,A29ZV4XJB7R1O,3QL2OFSM96IX96GYOSD9FU0YUTFCNP,11
168,"[True, True, True, True, True, False]","[""How many flights are there per round?"",""True or false: The hidden values will change each time I start a new round."",""How much does it cost to observe each hidden value?"",""How many hidden values am I allowed to observe in each round?"",""How is your bonus determined?"",""What does the feedback teach you?""]","[""3"",""True"",""$1.60"",""As many or as few as I wish"",""5% of my score on a random round"",""The length of the delay is based on how much more money I could have earned by planning and deciding better.""]",42329,302162,survey-multi-choice,A29ZV4XJB7R1O,3QL2OFSM96IX96GYOSD9FU0YUTFCNP,11
170,"[True, True, True, False, True, True]","[""How many flights are there per round?"",""True or false: The hidden values will change each time I start a new round."",""How much does it cost to observe each hidden value?"",""How many hidden values am I allowed to observe in each round?"",""How is your bonus determined?"",""What does the feedback teach you?""]","[""3"",""True"",""$1.60"",""At most 1"",""5% of my score on a random round"",""All of the above.""]",25785,365023,survey-multi-choice,A29ZV4XJB7R1O,3QL2OFSM96IX96GYOSD9FU0YUTFCNP,11
172,"[True, True, True, True, True, True]","[""How many flights are there per round?"",""True or false: The hidden values will change each time I start a new round."",""How much does it cost to observe each hidden value?"",""How many hidden values am I allowed to observe in each round?"",""How is your bonus determined?"",""What does the feedback teach you?""]","[""3"",""True"",""$1.60"",""As many or as few as I wish"",""5% of my score on a random round"",""All of the above.""]",22942,470513,survey-multi-choice,A29ZV4XJB7R1O,3QL2OFSM96IX96GYOSD9FU0YUTFCNP,11
183,"[False, True, True, True, True, False]","[""How many flights are there per round?"",""True or false: The hidden values will change each time I start a new round."",""How much does it cost to observe each hidden value?"",""How many hidden values am I allowed to observe in each round?"",""How is your bonus determined?"",""What does the feedback teach you?""]","[""1"",""True"",""$1.60"",""As many or as few as I wish"",""5% of my score on a random round"",""Whether I observed the rewards of relevant locations.""]",29338,778944,survey-multi-choice,A2ARHK50FQ79YC,3300DTYQT2HX91D40BBL9CV6KGFEQ7,12
185,"[False, True, True, True, True, True]","[""How many flights are there per round?"",""True or false: The hidden values will change each time I start a new round."",""How much does it cost to observe each hidden value?"",""How many hidden values am I allowed to observe in each round?"",""How is your bonus determined?"",""What does the feedback teach you?""]","[""2"",""True"",""$1.60"",""As many or as few as I wish"",""5% of my score on a random round"",""All of the above.""]",22385,871470,survey-multi-choice,A2ARHK50FQ79YC,3300DTYQT2HX91D40BBL9CV6KGFEQ7,12
187,"[False, True, True, True, True, False]","[""How many flights are there per round?"",""True or false: The hidden values will change each time I start a new round."",""How much does it cost to observe each hidden value?"",""How many hidden values am I allowed to observe in each round?"",""How is your bonus determined?"",""What does the feedback teach you?""]","[""1"",""True"",""$1.60"",""As many or as few as I wish"",""5% of my score on a random round"",""Whether I observed the rewards of relevant locations.""]",17400,969497,survey-multi-choice,A2ARHK50FQ79YC,3300DTYQT2HX91D40BBL9CV6KGFEQ7,12
189,"[False, True, True, True, True, False]","[""How many flights are there per round?"",""True or false: The hidden values will change each time I start a new round."",""How much does it cost to observe each hidden value?"",""How many hidden values am I allowed to observe in each round?"",""How is your bonus determined?"",""What does the feedback teach you?""]","[""2"",""True"",""$1.60"",""As many or as few as I wish"",""5% of my score on a random round"",""Whether I observed the rewards of relevant locations.""]",24145,1033648,survey-multi-choice,A2ARHK50FQ79YC,3300DTYQT2HX91D40BBL9CV6KGFEQ7,12
191,"[False, True, True, True, True, True]","[""How many flights are there per round?"",""True or false: The hidden values will change each time I start a new round."",""How much does it cost to observe each hidden value?"",""How many hidden values am I allowed to observe in each round?"",""How is your bonus determined?"",""What does the feedback teach you?""]","[""1"",""True"",""$1.60"",""As many or as few as I wish"",""5% of my score on a random round"",""All of the above.""]",27712,1123102,survey-multi-choice,A2ARHK50FQ79YC,3300DTYQT2HX91D40BBL9CV6KGFEQ7,12
193,"[False, True, True, True, True, True]","[""How many flights are there per round?"",""True or false: The hidden values will change each time I start a new round."",""How much does it cost to observe each hidden value?"",""How many hidden values am I allowed to observe in each round?"",""How is your bonus determined?"",""What does the feedback teach you?""]","[""1"",""True"",""$1.60"",""As many or as few as I wish"",""5% of my score on a random round"",""All of the above.""]",34454,1264203,survey-multi-choice,A2ARHK50FQ79YC,3300DTYQT2HX91D40BBL9CV6KGFEQ7,12
195,"[True, True, True, True, True, True]","[""How many flights are there per round?"",""True or false: The hidden values will change each time I start a new round."",""How much does it cost to observe each hidden value?"",""How many hidden values am I allowed to observe in each round?"",""How is your bonus determined?"",""What does the feedback teach you?""]","[""3"",""True"",""$1.60"",""As many or as few as I wish"",""5% of my score on a random round"",""All of the above.""]",8212,1293810,survey-multi-choice,A2ARHK50FQ79YC,3300DTYQT2HX91D40BBL9CV6KGFEQ7,12
206,"[False, True, True, True, True]","[""How many flights are there per round?"",""True or false: The hidden values will change each time I start a new round."",""How much does it cost to observe each hidden value?"",""How many hidden values am I allowed to observe in each round?"",""How is your bonus determined?""]","[""2"",""True"",""$1.60"",""As many or as few as I wish"",""5% of my score on a random round""]",40437,139737,survey-multi-choice,A2BPBFN87X32NO,3E4GGUZ1T8RJ3I3TUMWNBPA8O7X2K1,13
208,"[True, True, True, True, True]","[""How many flights are there per round?"",""True or false: The hidden values will change each time I start a new round."",""How much does it cost to observe each hidden value?"",""How many hidden values am I allowed to observe in each round?"",""How is your bonus determined?""]","[""3"",""True"",""$1.60"",""As many or as few as I wish"",""5% of my score on a random round""]",14841,228605,survey-multi-choice,A2BPBFN87X32NO,3E4GGUZ1T8RJ3I3TUMWNBPA8O7X2K1,13
219,"[True, True, True, True, True, True]","[""How many flights are there per round?"",""True or false: The hidden values will change each time I start a new round."",""How much does it cost to observe each hidden value?"",""How many hidden values am I allowed to observe in each round?"",""How is your bonus determined?"",""What does the feedback teach you?""]","[""3"",""True"",""$1.60"",""As many or as few as I wish"",""5% of my score on a random round"",""All of the above.""]",12008,17619,survey-multi-choice,A2CQP9DZSDUC5V,3ZOTGHDK5IBVY856MT3M9O4L665OS9,14
230,"[False, True, True, True, True]","[""How many flights are there per round?"",""True or false: The hidden values will change each time I start a new round."",""How much does it cost to observe each hidden value?"",""How many hidden values am I allowed to observe in each round?"",""How is your bonus determined?""]","[""1"",""True"",""$1.60"",""As many or as few as I wish"",""5% of my score on a random round""]",26187,206690,survey-multi-choice,A2HGSFG0CL508L,3HFNH7HEMHEVTF9V66199FGIXWTQGZ,15
232,"[False, True, True, True, True]","[""How many flights are there per round?"",""True or false: The hidden values will change each time I start a new round."",""How much does it cost to observe each hidden value?"",""How many hidden values am I allowed to observe in each round?"",""How is your bonus determined?""]","[""1"",""True"",""$1.60"",""As many or as few as I wish"",""5% of my score on a random round""]",46721,345963,survey-multi-choice,A2HGSFG0CL508L,3HFNH7HEMHEVTF9V66199FGIXWTQGZ,15
234,"[False, True, True, True, False]","[""How many flights are there per round?"",""True or false: The hidden values will change each time I start a new round."",""How much does it cost to observe each hidden value?"",""How many hidden values am I allowed to observe in each round?"",""How is your bonus determined?""]","[""1"",""True"",""$1.60"",""As many or as few as I wish"",""5% of my best score on any round""]",23085,667101,survey-multi-choice,A2HGSFG0CL508L,3HFNH7HEMHEVTF9V66199FGIXWTQGZ,15
236,"[False, False, True, True, False]","[""How many flights are there per round?"",""True or false: The hidden values will change each time I start a new round."",""How much does it cost to observe each hidden value?"",""How many hidden values am I allowed to observe in each round?"",""How is your bonus determined?""]","[""1"",""False"",""$1.60"",""As many or as few as I wish"",""5% of my best score on any round""]",60781,736673,survey-multi-choice,A2HGSFG0CL508L,3HFNH7HEMHEVTF9V66199FGIXWTQGZ,15
238,"[False, True, True, True, True]","[""How many flights are there per round?"",""True or false: The hidden values will change each time I start a new round."",""How much does it cost to observe each hidden value?"",""How many hidden values am I allowed to observe in each round?"",""How is your bonus determined?""]","[""1"",""True"",""$1.60"",""As many or as few as I wish"",""5% of my score on a random round""]",136570,969875,survey-multi-choice,A2HGSFG0CL508L,3HFNH7HEMHEVTF9V66199FGIXWTQGZ,15
240,"[False, True, True, True, True]","[""How many flights are there per round?"",""True or false: The hidden values will change each time I start a new round."",""How much does it cost to observe each hidden value?"",""How many hidden values am I allowed to observe in each round?"",""How is your bonus determined?""]","[""4"",""True"",""$1.60"",""As many or as few as I wish"",""5% of my score on a random round""]",19224,1011422,survey-multi-choice,A2HGSFG0CL508L,3HFNH7HEMHEVTF9V66199FGIXWTQGZ,15
242,"[False, False, True, True, True]","[""How many flights are there per round?"",""True or false: The hidden values will change each time I start a new round."",""How much does it cost to observe each hidden value?"",""How many hidden values am I allowed to observe in each round?"",""How is your bonus determined?""]","[""1"",""False"",""$1.60"",""As many or as few as I wish"",""5% of my score on a random round""]",46140,1297270,survey-multi-choice,A2HGSFG0CL508L,3HFNH7HEMHEVTF9V66199FGIXWTQGZ,15
244,"[False, False, True, True, False]","[""How many flights are there per round?"",""True or false: The hidden values will change each time I start a new round."",""How much does it cost to observe each hidden value?"",""How many hidden values am I allowed to observe in each round?"",""How is your bonus determined?""]","[""1"",""False"",""$1.60"",""As many or as few as I wish"",""5% of my best score on any round""]",14103,1318083,survey-multi-choice,A2HGSFG0CL508L,3HFNH7HEMHEVTF9V66199FGIXWTQGZ,15
246,"[False, True, True, True, True]","[""How many flights are there per round?"",""True or false: The hidden values will change each time I start a new round."",""How much does it cost to observe each hidden value?"",""How many hidden values am I allowed to observe in each round?"",""How is your bonus determined?""]","[""2"",""True"",""$1.60"",""As many or as few as I wish"",""5% of my score on a random round""]",27277,1407950,survey-multi-choice,A2HGSFG0CL508L,3HFNH7HEMHEVTF9V66199FGIXWTQGZ,15
248,"[True, True, True, True, True]","[""How many flights are there per round?"",""True or false: The hidden values will change each time I start a new round."",""How much does it cost to observe each hidden value?"",""How many hidden values am I allowed to observe in each round?"",""How is your bonus determined?""]","[""3"",""True"",""$1.60"",""As many or as few as I wish"",""5% of my score on a random round""]",10293,1422976,survey-multi-choice,A2HGSFG0CL508L,3HFNH7HEMHEVTF9V66199FGIXWTQGZ,15
259,"[False, True, True, True, True]","[""How many flights are there per round?"",""True or false: The hidden values will change each time I start a new round."",""How much does it cost to observe each hidden value?"",""How many hidden values am I allowed to observe in each round?"",""How is your bonus determined?""]","[""2"",""True"",""$1.60"",""As many or as few as I wish"",""5% of my score on a random round""]",22200,114142,survey-multi-choice,A2HLBE6RNK7DGC,3ZDAD0O1T1DJ7HWDCKV826R0KTOTX8,16
261,"[True, True, True, True, True]","[""How many flights are there per round?"",""True or false: The hidden values will change each time I start a new round."",""How much does it cost to observe each hidden value?"",""How many hidden values am I allowed to observe in each round?"",""How is your bonus determined?""]","[""3"",""True"",""$1.60"",""As many or as few as I wish"",""5% of my score on a random round""]",11216,140217,survey-multi-choice,A2HLBE6RNK7DGC,3ZDAD0O1T1DJ7HWDCKV826R0KTOTX8,16
272,"[False, True, True, True, True, True]","[""How many flights are there per round?"",""True or false: The hidden values will change each time I start a new round."",""How much does it cost to observe each hidden value?"",""How many hidden values am I allowed to observe in each round?"",""How is your bonus determined?"",""What does the feedback teach you?""]","[""1"",""True"",""$1.60"",""As many or as few as I wish"",""5% of my score on a random round"",""All of the above.""]",37659,137189,survey-multi-choice,A2JCK494NV7TFX,3EF8EXOTT1VH3DFFTXWX5R0QHCJ1JK,17
274,"[True, True, True, True, True, True]","[""How many flights are there per round?"",""True or false: The hidden values will change each time I start a new round."",""How much does it cost to observe each hidden value?"",""How many hidden values am I allowed to observe in each round?"",""How is your bonus determined?"",""What does the feedback teach you?""]","[""3"",""True"",""$1.60"",""As many or as few as I wish"",""5% of my score on a random round"",""All of the above.""]",11286,185519,survey-multi-choice,A2JCK494NV7TFX,3EF8EXOTT1VH3DFFTXWX5R0QHCJ1JK,17
285,"[False, True, True, False, False, True]","[""How many flights are there per round?"",""True or false: The hidden values will change each time I start a new round."",""How much does it cost to observe each hidden value?"",""How many hidden values am I allowed to observe in each round?"",""How is your bonus determined?"",""What does the feedback teach you?""]","[""1"",""True"",""$1.60"",""At most 1"",""5% of my best score on any round"",""All of the above.""]",149137,339314,survey-multi-choice,A2KMX4HGXSWS7U,3DYGAII7PL816S2U9PRW3OUAYNGQP3,18
287,"[False, True, True, False, True, True]","[""How many flights are there per round?"",""True or false: The hidden values will change each time I start a new round."",""How much does it cost to observe each hidden value?"",""How many hidden values am I allowed to observe in each round?"",""How is your bonus determined?"",""What does the feedback teach you?""]","[""1"",""True"",""$1.60"",""At most 5"",""5% of my score on a random round"",""All of the above.""]",39081,392386,survey-multi-choice,A2KMX4HGXSWS7U,3DYGAII7PL816S2U9PRW3OUAYNGQP3,18
289,"[False, True, True, True, True, False]","[""How many flights are there per round?"",""True or false: The hidden values will change each time I start a new round."",""How much does it cost to observe each hidden value?"",""How many hidden values am I allowed to observe in each round?"",""How is your bonus determined?"",""What does the feedback teach you?""]","[""1"",""True"",""$1.60"",""As many or as few as I wish"",""5% of my score on a random round"",""Whether I chose the move that was best according to the information I had.""]",145835,547442,survey-multi-choice,A2KMX4HGXSWS7U,3DYGAII7PL816S2U9PRW3OUAYNGQP3,18
291,"[False, True, True, True, True, False]","[""How many flights are there per round?"",""True or false: The hidden values will change each time I start a new round."",""How much does it cost to observe each hidden value?"",""How many hidden values am I allowed to observe in each round?"",""How is your bonus determined?"",""What does the feedback teach you?""]","[""1"",""True"",""$1.60"",""As many or as few as I wish"",""5% of my score on a random round"",""Whether I chose the move that was best according to the information I had.""]",64384,656038,survey-multi-choice,A2KMX4HGXSWS7U,3DYGAII7PL816S2U9PRW3OUAYNGQP3,18
293,"[False, True, True, False, True, True]","[""How many flights are there per round?"",""True or false: The hidden values will change each time I start a new round."",""How much does it cost to observe each hidden value?"",""How many hidden values am I allowed to observe in each round?"",""How is your bonus determined?"",""What does the feedback teach you?""]","[""1"",""True"",""$1.60"",""At most 1"",""5% of my score on a random round"",""All of the above.""]",67232,807396,survey-multi-choice,A2KMX4HGXSWS7U,3DYGAII7PL816S2U9PRW3OUAYNGQP3,18
295,"[False, True, True, True, True, True]","[""How many flights are there per round?"",""True or false: The hidden values will change each time I start a new round."",""How much does it cost to observe each hidden value?"",""How many hidden values am I allowed to observe in each round?"",""How is your bonus determined?"",""What does the feedback teach you?""]","[""1"",""True"",""$1.60"",""As many or as few as I wish"",""5% of my score on a random round"",""All of the above.""]",163820,1016030,survey-multi-choice,A2KMX4HGXSWS7U,3DYGAII7PL816S2U9PRW3OUAYNGQP3,18
297,"[False, True, True, True, True, True]","[""How many flights are there per round?"",""True or false: The hidden values will change each time I start a new round."",""How much does it cost to observe each hidden value?"",""How many hidden values am I allowed to observe in each round?"",""How is your bonus determined?"",""What does the feedback teach you?""]","[""4"",""True"",""$1.60"",""As many or as few as I wish"",""5% of my score on a random round"",""All of the above.""]",84385,1113922,survey-multi-choice,A2KMX4HGXSWS7U,3DYGAII7PL816S2U9PRW3OUAYNGQP3,18
299,"[False, True, True, True, True, True]","[""How many flights are there per round?"",""True or false: The hidden values will change each time I start a new round."",""How much does it cost to observe each hidden value?"",""How many hidden values am I allowed to observe in each round?"",""How is your bonus determined?"",""What does the feedback teach you?""]","[""2"",""True"",""$1.60"",""As many or as few as I wish"",""5% of my score on a random round"",""All of the above.""]",11885,1156362,survey-multi-choice,A2KMX4HGXSWS7U,3DYGAII7PL816S2U9PRW3OUAYNGQP3,18
301,"[False, False, True, True, True, True]","[""How many flights are there per round?"",""True or false: The hidden values will change each time I start a new round."",""How much does it cost to observe each hidden value?"",""How many hidden values am I allowed to observe in each round?"",""How is your bonus determined?"",""What does the feedback teach you?""]","[""1"",""False"",""$1.60"",""As many or as few as I wish"",""5% of my score on a random round"",""All of the above.""]",41236,1209349,survey-multi-choice,A2KMX4HGXSWS7U,3DYGAII7PL816S2U9PRW3OUAYNGQP3,18
303,"[True, True, True, True, True, True]","[""How many flights are there per round?"",""True or false: The hidden values will change each time I start a new round."",""How much does it cost to observe each hidden value?"",""How many hidden values am I allowed to observe in each round?"",""How is your bonus determined?"",""What does the feedback teach you?""]","[""3"",""True"",""$1.60"",""As many or as few as I wish"",""5% of my score on a random round"",""All of the above.""]",11134,1259457,survey-multi-choice,A2KMX4HGXSWS7U,3DYGAII7PL816S2U9PRW3OUAYNGQP3,18
314,"[True, False, True, True, True, False]","[""How many flights are there per round?"",""True or false: The hidden values will change each time I start a new round."",""How much does it cost to observe each hidden value?"",""How many hidden values am I allowed to observe in each round?"",""How is your bonus determined?"",""What does the feedback teach you?""]","[""3"",""False"",""$1.60"",""As many or as few as I wish"",""5% of my score on a random round"",""The length of the delay is based on how much more money I could have earned by planning and deciding better.""]",34029,270382,survey-multi-choice,A2RFZPWXR7D4I5,3VP0C6EFSGW2B7MX20L6GFJOTHT6MQ,19
316,"[True, True, True, True, True, False]","[""How many flights are there per round?"",""True or false: The hidden values will change each time I start a new round."",""How much does it cost to observe each hidden value?"",""How many hidden values am I allowed to observe in each round?"",""How is your bonus determined?"",""What does the feedback teach you?""]","[""3"",""True"",""$1.60"",""As many or as few as I wish"",""5% of my score on a random round"",""Whether I chose the move that was best according to the information I had.""]",24262,319045,survey-multi-choice,A2RFZPWXR7D4I5,3VP0C6EFSGW2B7MX20L6GFJOTHT6MQ,19
318,"[True, True, True, True, True, True]","[""How many flights are there per round?"",""True or false: The hidden values will change each time I start a new round."",""How much does it cost to observe each hidden value?"",""How many hidden values am I allowed to observe in each round?"",""How is your bonus determined?"",""What does the feedback teach you?""]","[""3"",""True"",""$1.60"",""As many or as few as I wish"",""5% of my score on a random round"",""All of the above.""]",14374,341785,survey-multi-choice,A2RFZPWXR7D4I5,3VP0C6EFSGW2B7MX20L6GFJOTHT6MQ,19
329,"[False, True, True, True, True, False]","[""How many flights are there per round?"",""True or false: The hidden values will change each time I start a new round."",""How much does it cost to observe each hidden value?"",""How many hidden values am I allowed to observe in each round?"",""How is your bonus determined?"",""What does the feedback teach you?""]","[""1"",""True"",""$1.60"",""As many or as few as I wish"",""5% of my score on a random round"",""Whether I observed the rewards of relevant locations.""]",32058,115950,survey-multi-choice,A2TOA704O1ML6A,3F0BG9B9MPNL9OPG4DE9GO6RX1QY74,20
331,"[False, True, True, True, True, True]","[""How many flights are there per round?"",""True or false: The hidden values will change each time I start a new round."",""How much does it cost to observe each hidden value?"",""How many hidden values am I allowed to observe in each round?"",""How is your bonus determined?"",""What does the feedback teach you?""]","[""1"",""True"",""$1.60"",""As many or as few as I wish"",""5% of my score on a random round"",""All of the above.""]",21827,200009,survey-multi-choice,A2TOA704O1ML6A,3F0BG9B9MPNL9OPG4DE9GO6RX1QY74,20
333,"[True, True, True, True, True, True]","[""How many flights are there per round?"",""True or false: The hidden values will change each time I start a new round."",""How much does it cost to observe each hidden value?"",""How many hidden values am I allowed to observe in each round?"",""How is your bonus determined?"",""What does the feedback teach you?""]","[""3"",""True"",""$1.60"",""As many or as few as I wish"",""5% of my score on a random round"",""All of the above.""]",27263,299373,survey-multi-choice,A2TOA704O1ML6A,3F0BG9B9MPNL9OPG4DE9GO6RX1QY74,20
344,"[False, True, True, True, True]","[""How many flights are there per round?"",""True or false: The hidden values will change each time I start a new round."",""How much does it cost to observe each hidden value?"",""How many hidden values am I allowed to observe in each round?"",""How is your bonus determined?""]","[""1"",""True"",""$1.60"",""As many or as few as I wish"",""5% of my score on a random round""]",121793,324512,survey-multi-choice,A2VX8B1CJXRN2,39U1BHVTDLR7RJPZSVOKVQ2WDYPT3A,21
346,"[False, True, True, True, True]","[""How many flights are there per round?"",""True or false: The hidden values will change each time I start a new round."",""How much does it cost to observe each hidden value?"",""How many hidden values am I allowed to observe in each round?"",""How is your bonus determined?""]","[""2"",""True"",""$1.60"",""As many or as few as I wish"",""5% of my score on a random round""]",23623,430389,survey-multi-choice,A2VX8B1CJXRN2,39U1BHVTDLR7RJPZSVOKVQ2WDYPT3A,21
348,"[False, True, True, True, True]","[""How many flights are there per round?"",""True or false: The hidden values will change each time I start a new round."",""How much does it cost to observe each hidden value?"",""How many hidden values am I allowed to observe in each round?"",""How is your bonus determined?""]","[""4"",""True"",""$1.60"",""As many or as few as I wish"",""5% of my score on a random round""]",28461,503833,survey-multi-choice,A2VX8B1CJXRN2,39U1BHVTDLR7RJPZSVOKVQ2WDYPT3A,21
350,"[True, True, True, True, True]","[""How many flights are there per round?"",""True or false: The hidden values will change each time I start a new round."",""How much does it cost to observe each hidden value?"",""How many hidden values am I allowed to observe in each round?"",""How is your bonus determined?""]","[""3"",""True"",""$1.60"",""As many or as few as I wish"",""5% of my score on a random round""]",180625,749048,survey-multi-choice,A2VX8B1CJXRN2,39U1BHVTDLR7RJPZSVOKVQ2WDYPT3A,21
361,"[False, True, False, True, False]","[""How many flights are there per round?"",""True or false: The hidden values will change each time I start a new round."",""How much does it cost to observe each hidden value?"",""How many hidden values am I allowed to observe in each round?"",""How is your bonus determined?""]","[""4"",""True"",""$0.05"",""As many or as few as I wish"",""10% of my total score on all rounds""]",21742,35185,survey-multi-choice,A2W59CL4UQ3S4S,3ZV9H2YQQD7ZJ0TTN0TVIA9VHS63W9,22
363,"[False, True, True, True, True]","[""How many flights are there per round?"",""True or false: The hidden values will change each time I start a new round."",""How much does it cost to observe each hidden value?"",""How many hidden values am I allowed to observe in each round?"",""How is your bonus determined?""]","[""1"",""True"",""$1.60"",""As many or as few as I wish"",""5% of my score on a random round""]",32694,118218,survey-multi-choice,A2W59CL4UQ3S4S,3ZV9H2YQQD7ZJ0TTN0TVIA9VHS63W9,22
365,"[False, True, True, True, True]","[""How many flights are there per round?"",""True or false: The hidden values will change each time I start a new round."",""How much does it cost to observe each hidden value?"",""How many hidden values am I allowed to observe in each round?"",""How is your bonus determined?""]","[""1"",""True"",""$1.60"",""As many or as few as I wish"",""5% of my score on a random round""]",15517,178177,survey-multi-choice,A2W59CL4UQ3S4S,3ZV9H2YQQD7ZJ0TTN0TVIA9VHS63W9,22
367,"[False, True, True, True, True]","[""How many flights are there per round?"",""True or false: The hidden values will change each time I start a new round."",""How much does it cost to observe each hidden value?"",""How many hidden values am I allowed to observe in each round?"",""How is your bonus determined?""]","[""2"",""True"",""$1.60"",""As many or as few as I wish"",""5% of my score on a random round""]",7303,221537,survey-multi-choice,A2W59CL4UQ3S4S,3ZV9H2YQQD7ZJ0TTN0TVIA9VHS63W9,22
369,"[True, True, True, True, True]","[""How many flights are there per round?"",""True or false: The hidden values will change each time I start a new round."",""How much does it cost to observe each hidden value?"",""How many hidden values am I allowed to observe in each round?"",""How is your bonus determined?""]","[""3"",""True"",""$1.60"",""As many or as few as I wish"",""5% of my score on a random round""]",7241,241756,survey-multi-choice,A2W59CL4UQ3S4S,3ZV9H2YQQD7ZJ0TTN0TVIA9VHS63W9,22
380,"[False, True, True, True, True]","[""How many flights are there per round?"",""True or false: The hidden values will change each time I start a new round."",""How much does it cost to observe each hidden value?"",""How many hidden values am I allowed to observe in each round?"",""How is your bonus determined?""]","[""1"",""True"",""$1.60"",""As many or as few as I wish"",""5% of my score on a random round""]",32340,130913,survey-multi-choice,A2WH3GIS2KF8LU,3TXD01ZLD4H79SNSSEJDARG4ACQU4L,23
382,"[False, True, True, True, True]","[""How many flights are there per round?"",""True or false: The hidden values will change each time I start a new round."",""How much does it cost to observe each hidden value?"",""How many hidden values am I allowed to observe in each round?"",""How is your bonus determined?""]","[""4"",""True"",""$1.60"",""As many or as few as I wish"",""5% of my score on a random round""]",26351,217697,survey-multi-choice,A2WH3GIS2KF8LU,3TXD01ZLD4H79SNSSEJDARG4ACQU4L,23
384,"[False, True, True, True, True]","[""How many flights are there per round?"",""True or false: The hidden values will change each time I start a new round."",""How much does it cost to observe each hidden value?"",""How many hidden values am I allowed to observe in each round?"",""How is your bonus determined?""]","[""2"",""True"",""$1.60"",""As many or as few as I wish"",""5% of my score on a random round""]",27684,314656,survey-multi-choice,A2WH3GIS2KF8LU,3TXD01ZLD4H79SNSSEJDARG4ACQU4L,23
386,"[True, True, True, True, True]","[""How many flights are there per round?"",""True or false: The hidden values will change each time I start a new round."",""How much does it cost to observe each hidden value?"",""How many hidden values am I allowed to observe in each round?"",""How is your bonus determined?""]","[""3"",""True"",""$1.60"",""As many or as few as I wish"",""5% of my score on a random round""]",11487,338802,survey-multi-choice,A2WH3GIS2KF8LU,3TXD01ZLD4H79SNSSEJDARG4ACQU4L,23
397,"[False, True, True, True, True, True]","[""How many flights are there per round?"",""True or false: The hidden values will change each time I start a new round."",""How much does it cost to observe each hidden value?"",""How many hidden values am I allowed to observe in each round?"",""How is your bonus determined?"",""What does the feedback teach you?""]","[""1"",""True"",""$1.60"",""As many or as few as I wish"",""5% of my score on a random round"",""All of the above.""]",26804,102364,survey-multi-choice,A2YBZFSUD5OP7W,3RANCT1ZVFHRUR817TT0I5MAK47UBR,24
399,"[False, True, True, True, True, False]","[""How many flights are there per round?"",""True or false: The hidden values will change each time I start a new round."",""How much does it cost to observe each hidden value?"",""How many hidden values am I allowed to observe in each round?"",""How is your bonus determined?"",""What does the feedback teach you?""]","[""1"",""True"",""$1.60"",""As many or as few as I wish"",""5% of my score on a random round"",""Whether I chose the move that was best according to the information I had.""]",90707,242851,survey-multi-choice,A2YBZFSUD5OP7W,3RANCT1ZVFHRUR817TT0I5MAK47UBR,24
401,"[False, True, True, True, True, True]","[""How many flights are there per round?"",""True or false: The hidden values will change each time I start a new round."",""How much does it cost to observe each hidden value?"",""How many hidden values am I allowed to observe in each round?"",""How is your bonus determined?"",""What does the feedback teach you?""]","[""4"",""True"",""$1.60"",""As many or as few as I wish"",""5% of my score on a random round"",""All of the above.""]",202155,483558,survey-multi-choice,A2YBZFSUD5OP7W,3RANCT1ZVFHRUR817TT0I5MAK47UBR,24
403,"[True, True, True, True, True, True]","[""How many flights are there per round?"",""True or false: The hidden values will change each time I start a new round."",""How much does it cost to observe each hidden value?"",""How many hidden values am I allowed to observe in each round?"",""How is your bonus determined?"",""What does the feedback teach you?""]","[""3"",""True"",""$1.60"",""As many or as few as I wish"",""5% of my score on a random round"",""All of the above.""]",12839,514137,survey-multi-choice,A2YBZFSUD5OP7W,3RANCT1ZVFHRUR817TT0I5MAK47UBR,24
414,"[False, True, True, True, True, True]","[""How many flights are there per round?"",""True or false: The hidden values will change each time I start a new round."",""How much does it cost to observe each hidden value?"",""How many hidden values am I allowed to observe in each round?"",""How is your bonus determined?"",""What does the feedback teach you?""]","[""1"",""True"",""$1.60"",""As many or as few as I wish"",""5% of my score on a random round"",""All of the above.""]",71583,208862,survey-multi-choice,A2YE2I9DYV9OKW,3IO1LGZLK9XNQIKT8ZBNBXIT9C5683,25
416,"[False, True, True, True, True, False]","[""How many flights are there per round?"",""True or false: The hidden values will change each time I start a new round."",""How much does it cost to observe each hidden value?"",""How many hidden values am I allowed to observe in each round?"",""How is your bonus determined?"",""What does the feedback teach you?""]","[""1"",""True"",""$1.60"",""As many or as few as I wish"",""5% of my score on a random round"",""The length of the delay is based on how much more money I could have earned by planning and deciding better.""]",29484,310334,survey-multi-choice,A2YE2I9DYV9OKW,3IO1LGZLK9XNQIKT8ZBNBXIT9C5683,25
418,"[False, True, True, True, True, True]","[""How many flights are there per round?"",""True or false: The hidden values will change each time I start a new round."",""How much does it cost to observe each hidden value?"",""How many hidden values am I allowed to observe in each round?"",""How is your bonus determined?"",""What does the feedback teach you?""]","[""1"",""True"",""$1.60"",""As many or as few as I wish"",""5% of my score on a random round"",""All of the above.""]",32800,443928,survey-multi-choice,A2YE2I9DYV9OKW,3IO1LGZLK9XNQIKT8ZBNBXIT9C5683,25
420,"[True, True, True, True, True, True]","[""How many flights are there per round?"",""True or false: The hidden values will change each time I start a new round."",""How much does it cost to observe each hidden value?"",""How many hidden values am I allowed to observe in each round?"",""How is your bonus determined?"",""What does the feedback teach you?""]","[""3"",""True"",""$1.60"",""As many or as few as I wish"",""5% of my score on a random round"",""All of the above.""]",11777,491960,survey-multi-choice,A2YE2I9DYV9OKW,3IO1LGZLK9XNQIKT8ZBNBXIT9C5683,25
431,"[True, True, True, True, False]","[""How many flights are there per round?"",""True or false: The hidden values will change each time I start a new round."",""How much does it cost to observe each hidden value?"",""How many hidden values am I allowed to observe in each round?"",""How is your bonus determined?""]","[""3"",""True"",""$1.60"",""As many or as few as I wish"",""5% of my best score on any round""]",19347,80423,survey-multi-choice,A34D413HR7ZIFM,3PDJHANYK5GGJTLMB35TOABSCVU6HH,26
433,"[False, True, True, True, True]","[""How many flights are there per round?"",""True or false: The hidden values will change each time I start a new round."",""How much does it cost to observe each hidden value?"",""How many hidden values am I allowed to observe in each round?"",""How is your bonus determined?""]","[""2"",""True"",""$1.60"",""As many or as few as I wish"",""5% of my score on a random round""]",18873,124287,survey-multi-choice,A34D413HR7ZIFM,3PDJHANYK5GGJTLMB35TOABSCVU6HH,26
435,"[False, True, True, True, True]","[""How many flights are there per round?"",""True or false: The hidden values will change each time I start a new round."",""How much does it cost to observe each hidden value?"",""How many hidden values am I allowed to observe in each round?"",""How is your bonus determined?""]","[""1"",""True"",""$1.60"",""As many or as few as I wish"",""5% of my score on a random round""]",14077,180562,survey-multi-choice,A34D413HR7ZIFM,3PDJHANYK5GGJTLMB35TOABSCVU6HH,26
437,"[False, True, True, True, True]","[""How many flights are there per round?"",""True or false: The hidden values will change each time I start a new round."",""How much does it cost to observe each hidden value?"",""How many hidden values am I allowed to observe in each round?"",""How is your bonus determined?""]","[""1"",""True"",""$1.60"",""As many or as few as I wish"",""5% of my score on a random round""]",30664,259155,survey-multi-choice,A34D413HR7ZIFM,3PDJHANYK5GGJTLMB35TOABSCVU6HH,26
439,"[False, True, True, True, True]","[""How many flights are there per round?"",""True or false: The hidden values will change each time I start a new round."",""How much does it cost to observe each hidden value?"",""How many hidden values am I allowed to observe in each round?"",""How is your bonus determined?""]","[""2"",""True"",""$1.60"",""As many or as few as I wish"",""5% of my score on a random round""]",23623,330722,survey-multi-choice,A34D413HR7ZIFM,3PDJHANYK5GGJTLMB35TOABSCVU6HH,26
441,"[True, True, True, True, True]","[""How many flights are there per round?"",""True or false: The hidden values will change each time I start a new round."",""How much does it cost to observe each hidden value?"",""How many hidden values am I allowed to observe in each round?"",""How is your bonus determined?""]","[""3"",""True"",""$1.60"",""As many or as few as I wish"",""5% of my score on a random round""]",12128,368673,survey-multi-choice,A34D413HR7ZIFM,3PDJHANYK5GGJTLMB35TOABSCVU6HH,26
452,"[False, True, True, True, True, True]","[""How many flights are there per round?"",""True or false: The hidden values will change each time I start a new round."",""How much does it cost to observe each hidden value?"",""How many hidden values am I allowed to observe in each round?"",""How is your bonus determined?"",""What does the feedback teach you?""]","[""1"",""True"",""$1.60"",""As many or as few as I wish"",""5% of my score on a random round"",""All of the above.""]",46902,145028,survey-multi-choice,A3862RIFFUV141,32Z9ZLUT1LK68ZRQBZRN5AXJXVOHOH,27
454,"[False, True, True, True, True, False]","[""How many flights are there per round?"",""True or false: The hidden values will change each time I start a new round."",""How much does it cost to observe each hidden value?"",""How many hidden values am I allowed to observe in each round?"",""How is your bonus determined?"",""What does the feedback teach you?""]","[""1"",""True"",""$1.60"",""As many or as few as I wish"",""5% of my score on a random round"",""The length of the delay is based on how much more money I could have earned by planning and deciding better.""]",28520,241067,survey-multi-choice,A3862RIFFUV141,32Z9ZLUT1LK68ZRQBZRN5AXJXVOHOH,27
456,"[True, True, True, True, True, True]","[""How many flights are there per round?"",""True or false: The hidden values will change each time I start a new round."",""How much does it cost to observe each hidden value?"",""How many hidden values am I allowed to observe in each round?"",""How is your bonus determined?"",""What does the feedback teach you?""]","[""3"",""True"",""$1.60"",""As many or as few as I wish"",""5% of my score on a random round"",""All of the above.""]",36911,316379,survey-multi-choice,A3862RIFFUV141,32Z9ZLUT1LK68ZRQBZRN5AXJXVOHOH,27
467,"[False, True, True, True, True, True]","[""How many flights are there per round?"",""True or false: The hidden values will change each time I start a new round."",""How much does it cost to observe each hidden value?"",""How many hidden values am I allowed to observe in each round?"",""How is your bonus determined?"",""What does the feedback teach you?""]","[""1"",""True"",""$1.60"",""As many or as few as I wish"",""5% of my score on a random round"",""All of the above.""]",32931,258557,survey-multi-choice,A3C9GGDXBZW62D,3NLZY2D53PPBF7NWHXYPM7LQTDFLQ0,28
469,"[True, True, True, True, True, True]","[""How many flights are there per round?"",""True or false: The hidden values will change each time I start a new round."",""How much does it cost to observe each hidden value?"",""How many hidden values am I allowed to observe in each round?"",""How is your bonus determined?"",""What does the feedback teach you?""]","[""3"",""True"",""$1.60"",""As many or as few as I wish"",""5% of my score on a random round"",""All of the above.""]",14942,376405,survey-multi-choice,A3C9GGDXBZW62D,3NLZY2D53PPBF7NWHXYPM7LQTDFLQ0,28
480,"[False, True, True, True, True]","[""How many flights are there per round?"",""True or false: The hidden values will change each time I start a new round."",""How much does it cost to observe each hidden value?"",""How many hidden values am I allowed to observe in each round?"",""How is your bonus determined?""]","[""1"",""True"",""$1.60"",""As many or as few as I wish"",""5% of my score on a random round""]",52852,200733,survey-multi-choice,A3EU2ZIKRJTLQD,39ASUFLU6X7HIYEGMP6D3KRZHI0XEJ,29
482,"[False, True, True, True, True]","[""How many flights are there per round?"",""True or false: The hidden values will change each time I start a new round."",""How much does it cost to observe each hidden value?"",""How many hidden values am I allowed to observe in each round?"",""How is your bonus determined?""]","[""2"",""True"",""$1.60"",""As many or as few as I wish"",""5% of my score on a random round""]",70636,388070,survey-multi-choice,A3EU2ZIKRJTLQD,39ASUFLU6X7HIYEGMP6D3KRZHI0XEJ,29
484,"[True, True, True, True, True]","[""How many flights are there per round?"",""True or false: The hidden values will change each time I start a new round."",""How much does it cost to observe each hidden value?"",""How many hidden values am I allowed to observe in each round?"",""How is your bonus determined?""]","[""3"",""True"",""$1.60"",""As many or as few as I wish"",""5% of my score on a random round""]",22450,484435,survey-multi-choice,A3EU2ZIKRJTLQD,39ASUFLU6X7HIYEGMP6D3KRZHI0XEJ,29
495,"[False, True, True, True, True, False]","[""How many flights are there per round?"",""True or false: The hidden values will change each time I start a new round."",""How much does it cost to observe each hidden value?"",""How many hidden values am I allowed to observe in each round?"",""How is your bonus determined?"",""What does the feedback teach you?""]","[""1"",""True"",""$1.60"",""As many or as few as I wish"",""5% of my score on a random round"",""Whether I observed the rewards of relevant locations.""]",27446,151241,survey-multi-choice,A3HMDGRGC5JB7E,39OWYR0EPKRYOH4MMWCL4GJ8VP9YF8,30
497,"[False, True, True, True, True, True]","[""How many flights are there per round?"",""True or false: The hidden values will change each time I start a new round."",""How much does it cost to observe each hidden value?"",""How many hidden values am I allowed to observe in each round?"",""How is your bonus determined?"",""What does the feedback teach you?""]","[""1"",""True"",""$1.60"",""As many or as few as I wish"",""5% of my score on a random round"",""All of the above.""]",13954,192701,survey-multi-choice,A3HMDGRGC5JB7E,39OWYR0EPKRYOH4MMWCL4GJ8VP9YF8,30
499,"[False, True, True, False, True, True]","[""How many flights are there per round?"",""True or false: The hidden values will change each time I start a new round."",""How much does it cost to observe each hidden value?"",""How many hidden values am I allowed to observe in each round?"",""How is your bonus determined?"",""What does the feedback teach you?""]","[""1"",""True"",""$1.60"",""At most 5"",""5% of my score on a random round"",""All of the above.""]",17906,240403,survey-multi-choice,A3HMDGRGC5JB7E,39OWYR0EPKRYOH4MMWCL4GJ8VP9YF8,30
501,"[False, True, True, True, True, True]","[""How many flights are there per round?"",""True or false: The hidden values will change each time I start a new round."",""How much does it cost to observe each hidden value?"",""How many hidden values am I allowed to observe in each round?"",""How is your bonus determined?"",""What does the feedback teach you?""]","[""2"",""True"",""$1.60"",""As many or as few as I wish"",""5% of my score on a random round"",""All of the above.""]",12233,290803,survey-multi-choice,A3HMDGRGC5JB7E,39OWYR0EPKRYOH4MMWCL4GJ8VP9YF8,30
503,"[False, True, True, False, True, True]","[""How many flights are there per round?"",""True or false: The hidden values will change each time I start a new round."",""How much does it cost to observe each hidden value?"",""How many hidden values am I allowed to observe in each round?"",""How is your bonus determined?"",""What does the feedback teach you?""]","[""2"",""True"",""$1.60"",""At most 1"",""5% of my score on a random round"",""All of the above.""]",12687,347129,survey-multi-choice,A3HMDGRGC5JB7E,39OWYR0EPKRYOH4MMWCL4GJ8VP9YF8,30
505,"[False, True, True, True, True, False]","[""How many flights are there per round?"",""True or false: The hidden values will change each time I start a new round."",""How much does it cost to observe each hidden value?"",""How many hidden values am I allowed to observe in each round?"",""How is your bonus determined?"",""What does the feedback teach you?""]","[""2"",""True"",""$1.60"",""As many or as few as I wish"",""5% of my score on a random round"",""Whether I chose the move that was best according to the information I had.""]",16652,378322,survey-multi-choice,A3HMDGRGC5JB7E,39OWYR0EPKRYOH4MMWCL4GJ8VP9YF8,30
507,"[False, True, True, True, True, True]","[""How many flights are there per round?"",""True or false: The hidden values will change each time I start a new round."",""How much does it cost to observe each hidden value?"",""How many hidden values am I allowed to observe in each round?"",""How is your bonus determined?"",""What does the feedback teach you?""]","[""1"",""True"",""$1.60"",""As many or as few as I wish"",""5% of my score on a random round"",""All of the above.""]",7659,402750,survey-multi-choice,A3HMDGRGC5JB7E,39OWYR0EPKRYOH4MMWCL4GJ8VP9YF8,30
509,"[False, True, True, True, True, True]","[""How many flights are there per round?"",""True or false: The hidden values will change each time I start a new round."",""How much does it cost to observe each hidden value?"",""How many hidden values am I allowed to observe in each round?"",""How is your bonus determined?"",""What does the feedback teach you?""]","[""2"",""True"",""$1.60"",""As many or as few as I wish"",""5% of my score on a random round"",""All of the above.""]",9935,419725,survey-multi-choice,A3HMDGRGC5JB7E,39OWYR0EPKRYOH4MMWCL4GJ8VP9YF8,30
511,"[True, True, True, True, True, True]","[""How many flights are there per round?"",""True or false: The hidden values will change each time I start a new round."",""How much does it cost to observe each hidden value?"",""How many hidden values am I allowed to observe in each round?"",""How is your bonus determined?"",""What does the feedback teach you?""]","[""3"",""True"",""$1.60"",""As many or as few as I wish"",""5% of my score on a random round"",""All of the above.""]",10448,439810,survey-multi-choice,A3HMDGRGC5JB7E,39OWYR0EPKRYOH4MMWCL4GJ8VP9YF8,30
522,"[False, False, True, True, True]","[""How many flights are there per round?"",""True or false: The hidden values will change each time I start a new round."",""How much does it cost to observe each hidden value?"",""How many hidden values am I allowed to observe in each round?"",""How is your bonus determined?""]","[""4"",""False"",""$1.60"",""As many or as few as I wish"",""5% of my score on a random round""]",26727,106771,survey-multi-choice,A3QJJR5Y3XE92N,3F0BG9B9MPNL9OPG4DE9GO6RX2TY79,31
524,"[False, True, True, True, True]","[""How many flights are there per round?"",""True or false: The hidden values will change each time I start a new round."",""How much does it cost to observe each hidden value?"",""How many hidden values am I allowed to observe in each round?"",""How is your bonus determined?""]","[""2"",""True"",""$1.60"",""As many or as few as I wish"",""5% of my score on a random round""]",18168,170361,survey-multi-choice,A3QJJR5Y3XE92N,3F0BG9B9MPNL9OPG4DE9GO6RX2TY79,31
526,"[False, True, True, True, True]","[""How many flights are there per round?"",""True or false: The hidden values will change each time I start a new round."",""How much does it cost to observe each hidden value?"",""How many hidden values am I allowed to observe in each round?"",""How is your bonus determined?""]","[""4"",""True"",""$1.60"",""As many or as few as I wish"",""5% of my score on a random round""]",21710,238562,survey-multi-choice,A3QJJR5Y3XE92N,3F0BG9B9MPNL9OPG4DE9GO6RX2TY79,31
528,"[False, True, True, True, True]","[""How many flights are there per round?"",""True or false: The hidden values will change each time I start a new round."",""How much does it cost to observe each hidden value?"",""How many hidden values am I allowed to observe in each round?"",""How is your bonus determined?""]","[""1"",""True"",""$1.60"",""As many or as few as I wish"",""5% of my score on a random round""]",17161,309589,survey-multi-choice,A3QJJR5Y3XE92N,3F0BG9B9MPNL9OPG4DE9GO6RX2TY79,31
530,"[True, True, True, True, True]","[""How many flights are there per round?"",""True or false: The hidden values will change each time I start a new round."",""How much does it cost to observe each hidden value?"",""How many hidden values am I allowed to observe in each round?"",""How is your bonus determined?""]","[""3"",""True"",""$1.60"",""As many or as few as I wish"",""5% of my score on a random round""]",7843,324465,survey-multi-choice,A3QJJR5Y3XE92N,3F0BG9B9MPNL9OPG4DE9GO6RX2TY79,31
541,"[False, True, True, True, True, False]","[""How many flights are there per round?"",""True or false: The hidden values will change each time I start a new round."",""How much does it cost to observe each hidden value?"",""How many hidden values am I allowed to observe in each round?"",""How is your bonus determined?"",""What does the feedback teach you?""]","[""1"",""True"",""$1.60"",""As many or as few as I wish"",""5% of my score on a random round"",""The length of the delay is based on how much more money I could have earned by planning and deciding better.""]",62928,313001,survey-multi-choice,A3SSHRVWPASGML,3NVC2EB65QZ385OT21BJ37UBS05Y32,32
543,"[True, True, True, True, True, True]","[""How many flights are there per round?"",""True or false: The hidden values will change each time I start a new round."",""How much does it cost to observe each hidden value?"",""How many hidden values am I allowed to observe in each round?"",""How is your bonus determined?"",""What does the feedback teach you?""]","[""3"",""True"",""$1.60"",""As many or as few as I wish"",""5% of my score on a random round"",""All of the above.""]",25413,439219,survey-multi-choice,A3SSHRVWPASGML,3NVC2EB65QZ385OT21BJ37UBS05Y32,32
554,"[False, True, True, True, True, True]","[""How many flights are there per round?"",""True or false: The hidden values will change each time I start a new round."",""How much does it cost to observe each hidden value?"",""How many hidden values am I allowed to observe in each round?"",""How is your bonus determined?"",""What does the feedback teach you?""]","[""4"",""True"",""$1.60"",""As many or as few as I wish"",""5% of my score on a random round"",""All of the above.""]",56833,132770,survey-multi-choice,A9VLWY4KW6OCB,3UNH76FOCS54URW38JGYZ63HSRMYMI,33
556,"[False, True, True, False, True, False]","[""How many flights are there per round?"",""True or false: The hidden values will change each time I start a new round."",""How much does it cost to observe each hidden value?"",""How many hidden values am I allowed to observe in each round?"",""How is your bonus determined?"",""What does the feedback teach you?""]","[""4"",""True"",""$1.60"",""At most 10"",""5% of my score on a random round"",""Whether I chose the move that was best according to the information I had.""]",27602,206339,survey-multi-choice,A9VLWY4KW6OCB,3UNH76FOCS54URW38JGYZ63HSRMYMI,33
558,"[False, True, True, False, True, True]","[""How many flights are there per round?"",""True or false: The hidden values will change each time I start a new round."",""How much does it cost to observe each hidden value?"",""How many hidden values am I allowed to observe in each round?"",""How is your bonus determined?"",""What does the feedback teach you?""]","[""4"",""True"",""$1.60"",""At most 1"",""5% of my score on a random round"",""All of the above.""]",20110,297336,survey-multi-choice,A9VLWY4KW6OCB,3UNH76FOCS54URW38JGYZ63HSRMYMI,33
560,"[True, True, True, True, True, True]","[""How many flights are there per round?"",""True or false: The hidden values will change each time I start a new round."",""How much does it cost to observe each hidden value?"",""How many hidden values am I allowed to observe in each round?"",""How is your bonus determined?"",""What does the feedback teach you?""]","[""3"",""True"",""$1.60"",""As many or as few as I wish"",""5% of my score on a random round"",""All of the above.""]",22032,375954,survey-multi-choice,A9VLWY4KW6OCB,3UNH76FOCS54URW38JGYZ63HSRMYMI,33
571,"[False, True, True, True, False, False]","[""How many flights are there per round?"",""True or false: The hidden values will change each time I start a new round."",""How much does it cost to observe each hidden value?"",""How many hidden values am I allowed to observe in each round?"",""How is your bonus determined?"",""What does the feedback teach you?""]","[""1"",""True"",""$1.60"",""As many or as few as I wish"",""5% of my best score on any round"",""Whether I chose the move that was best according to the information I had.""]",31070,83737,survey-multi-choice,AA68DKY05DOXC,3LOTDFNYA7ZUZC9M7VUXJJYSKIBWFB,34
573,"[False, True, True, True, True, False]","[""How many flights are there per round?"",""True or false: The hidden values will change each time I start a new round."",""How much does it cost to observe each hidden value?"",""How many hidden values am I allowed to observe in each round?"",""How is your bonus determined?"",""What does the feedback teach you?""]","[""1"",""True"",""$1.60"",""As many or as few as I wish"",""5% of my score on a random round"",""Whether I chose the move that was best according to the information I had.""]",11576,130094,survey-multi-choice,AA68DKY05DOXC,3LOTDFNYA7ZUZC9M7VUXJJYSKIBWFB,34
575,"[False, True, True, True, True, True]","[""How many flights are there per round?"",""True or false: The hidden values will change each time I start a new round."",""How much does it cost to observe each hidden value?"",""How many hidden values am I allowed to observe in each round?"",""How is your bonus determined?"",""What does the feedback teach you?""]","[""1"",""True"",""$1.60"",""As many or as few as I wish"",""5% of my score on a random round"",""All of the above.""]",201105,341792,survey-multi-choice,AA68DKY05DOXC,3LOTDFNYA7ZUZC9M7VUXJJYSKIBWFB,34
577,"[False, True, True, True, True, False]","[""How many flights are there per round?"",""True or false: The hidden values will change each time I start a new round."",""How much does it cost to observe each hidden value?"",""How many hidden values am I allowed to observe in each round?"",""How is your bonus determined?"",""What does the feedback teach you?""]","[""1"",""True"",""$1.60"",""As many or as few as I wish"",""5% of my score on a random round"",""Whether I observed the rewards of relevant locations.""]",14595,397419,survey-multi-choice,AA68DKY05DOXC,3LOTDFNYA7ZUZC9M7VUXJJYSKIBWFB,34
579,"[True, True, True, True, True, True]","[""How many flights are there per round?"",""True or false: The hidden values will change each time I start a new round."",""How much does it cost to observe each hidden value?"",""How many hidden values am I allowed to observe in each round?"",""How is your bonus determined?"",""What does the feedback teach you?""]","[""3"",""True"",""$1.60"",""As many or as few as I wish"",""5% of my score on a random round"",""All of the above.""]",24135,428349,survey-multi-choice,AA68DKY05DOXC,3LOTDFNYA7ZUZC9M7VUXJJYSKIBWFB,34
590,"[False, True, True, True, True, True]","[""How many flights are there per round?"",""True or false: The hidden values will change each time I start a new round."",""How much does it cost to observe each hidden value?"",""How many hidden values am I allowed to observe in each round?"",""How is your bonus determined?"",""What does the feedback teach you?""]","[""4"",""True"",""$1.60"",""As many or as few as I wish"",""5% of my score on a random round"",""All of the above.""]",31933,90869,survey-multi-choice,AADDOP3FHMAV1,3TVSS0C0E104IHRN2FZM0NDTBRIWTI,35
592,"[False, True, True, True, True, True]","[""How many flights are there per round?"",""True or false: The hidden values will change each time I start a new round."",""How much does it cost to observe each hidden value?"",""How many hidden values am I allowed to observe in each round?"",""How is your bonus determined?"",""What does the feedback teach you?""]","[""2"",""True"",""$1.60"",""As many or as few as I wish"",""5% of my score on a random round"",""All of the above.""]",25031,347029,survey-multi-choice,AADDOP3FHMAV1,3TVSS0C0E104IHRN2FZM0NDTBRIWTI,35
594,"[False, True, True, True, True, True]","[""How many flights are there per round?"",""True or false: The hidden values will change each time I start a new round."",""How much does it cost to observe each hidden value?"",""How many hidden values am I allowed to observe in each round?"",""How is your bonus determined?"",""What does the feedback teach you?""]","[""1"",""True"",""$1.60"",""As many or as few as I wish"",""5% of my score on a random round"",""All of the above.""]",12055,382914,survey-multi-choice,AADDOP3FHMAV1,3TVSS0C0E104IHRN2FZM0NDTBRIWTI,35
596,"[True, True, True, True, True, True]","[""How many flights are there per round?"",""True or false: The hidden values will change each time I start a new round."",""How much does it cost to observe each hidden value?"",""How many hidden values am I allowed to observe in each round?"",""How is your bonus determined?"",""What does the feedback teach you?""]","[""3"",""True"",""$1.60"",""As many or as few as I wish"",""5% of my score on a random round"",""All of the above.""]",15259,434196,survey-multi-choice,AADDOP3FHMAV1,3TVSS0C0E104IHRN2FZM0NDTBRIWTI,35
607,"[False, True, True, True, True]","[""How many flights are there per round?"",""True or false: The hidden values will change each time I start a new round."",""How much does it cost to observe each hidden value?"",""How many hidden values am I allowed to observe in each round?"",""How is your bonus determined?""]","[""1"",""True"",""$1.60"",""As many or as few as I wish"",""5% of my score on a random round""]",29288,222450,survey-multi-choice,AF1MN25P3XFLG,3EWIJTFFVO79L885JDH6U64O7CIE0A,36
609,"[False, False, True, True, True]","[""How many flights are there per round?"",""True or false: The hidden values will change each time I start a new round."",""How much does it cost to observe each hidden value?"",""How many hidden values am I allowed to observe in each round?"",""How is your bonus determined?""]","[""1"",""False"",""$1.60"",""As many or as few as I wish"",""5% of my score on a random round""]",55466,300130,survey-multi-choice,AF1MN25P3XFLG,3EWIJTFFVO79L885JDH6U64O7CIE0A,36
611,"[False, True, True, True, True]","[""How many flights are there per round?"",""True or false: The hidden values will change each time I start a new round."",""How much does it cost to observe each hidden value?"",""How many hidden values am I allowed to observe in each round?"",""How is your bonus determined?""]","[""2"",""True"",""$1.60"",""As many or as few as I wish"",""5% of my score on a random round""]",17974,401305,survey-multi-choice,AF1MN25P3XFLG,3EWIJTFFVO79L885JDH6U64O7CIE0A,36
613,"[False, True, True, True, True]","[""How many flights are there per round?"",""True or false: The hidden values will change each time I start a new round."",""How much does it cost to observe each hidden value?"",""How many hidden values am I allowed to observe in each round?"",""How is your bonus determined?""]","[""4"",""True"",""$1.60"",""As many or as few as I wish"",""5% of my score on a random round""]",15697,425090,survey-multi-choice,AF1MN25P3XFLG,3EWIJTFFVO79L885JDH6U64O7CIE0A,36
615,"[False, True, True, True, True]","[""How many flights are there per round?"",""True or false: The hidden values will change each time I start a new round."",""How much does it cost to observe each hidden value?"",""How many hidden values am I allowed to observe in each round?"",""How is your bonus determined?""]","[""1"",""True"",""$1.60"",""As many or as few as I wish"",""5% of my score on a random round""]",14288,449016,survey-multi-choice,AF1MN25P3XFLG,3EWIJTFFVO79L885JDH6U64O7CIE0A,36
617,"[True, True, True, True, True]","[""How many flights are there per round?"",""True or false: The hidden values will change each time I start a new round."",""How much does it cost to observe each hidden value?"",""How many hidden values am I allowed to observe in each round?"",""How is your bonus determined?""]","[""3"",""True"",""$1.60"",""As many or as few as I wish"",""5% of my score on a random round""]",16747,475102,survey-multi-choice,AF1MN25P3XFLG,3EWIJTFFVO79L885JDH6U64O7CIE0A,36
628,"[False, True, True, True, True, True]","[""How many flights are there per round?"",""True or false: The hidden values will change each time I start a new round."",""How much does it cost to observe each hidden value?"",""How many hidden values am I allowed to observe in each round?"",""How is your bonus determined?"",""What does the feedback teach you?""]","[""1"",""True"",""$1.60"",""As many or as few as I wish"",""5% of my score on a random round"",""All of the above.""]",28778,170281,survey-multi-choice,AHPOUVK6YUTK1,3JJVG1YBEBXA9CIM6SLSATUULNEB5Q,37
630,"[False, True, True, True, True, False]","[""How many flights are there per round?"",""True or false: The hidden values will change each time I start a new round."",""How much does it cost to observe each hidden value?"",""How many hidden values am I allowed to observe in each round?"",""How is your bonus determined?"",""What does the feedback teach you?""]","[""1"",""True"",""$1.60"",""As many or as few as I wish"",""5% of my score on a random round"",""Whether I chose the move that was best according to the information I had.""]",30880,284728,survey-multi-choice,AHPOUVK6YUTK1,3JJVG1YBEBXA9CIM6SLSATUULNEB5Q,37
632,"[True, True, True, True, True, True]","[""How many flights are there per round?"",""True or false: The hidden values will change each time I start a new round."",""How much does it cost to observe each hidden value?"",""How many hidden values am I allowed to observe in each round?"",""How is your bonus determined?"",""What does the feedback teach you?""]","[""3"",""True"",""$1.60"",""As many or as few as I wish"",""5% of my score on a random round"",""All of the above.""]",32561,386106,survey-multi-choice,AHPOUVK6YUTK1,3JJVG1YBEBXA9CIM6SLSATUULNEB5Q,37
643,"[False, True, True, True, True, True]","[""How many flights are there per round?"",""True or false: The hidden values will change each time I start a new round."",""How much does it cost to observe each hidden value?"",""How many hidden values am I allowed to observe in each round?"",""How is your bonus determined?"",""What does the feedback teach you?""]","[""1"",""True"",""$1.60"",""As many or as few as I wish"",""5% of my score on a random round"",""All of the above.""]",44713,173502,survey-multi-choice,AKZ8SFOAI4RZN,3S96KQ6I9M459BRWLKUW8ZO84BCDTQ,38
645,"[True, True, True, True, True, True]","[""How many flights are there per round?"",""True or false: The hidden values will change each time I start a new round."",""How much does it cost to observe each hidden value?"",""How many hidden values am I allowed to observe in each round?"",""How is your bonus determined?"",""What does the feedback teach you?""]","[""3"",""True"",""$1.60"",""As many or as few as I wish"",""5% of my score on a random round"",""All of the above.""]",12049,224560,survey-multi-choice,AKZ8SFOAI4RZN,3S96KQ6I9M459BRWLKUW8ZO84BCDTQ,38
656,"[False, True, True, False, False, False]","[""How many flights are there per round?"",""True or false: The hidden values will change each time I start a new round."",""How much does it cost to observe each hidden value?"",""How many hidden values am I allowed to observe in each round?"",""How is your bonus determined?"",""What does the feedback teach you?""]","[""1"",""True"",""$1.60"",""At most 1"",""10% of my best score on any round"",""The length of the delay is based on how much more money I could have earned by planning and deciding better.""]",28163,86366,survey-multi-choice,AMEX6UDG3WZWK,3ERET4BTVM9U32OSFVB2LCIMUD6K9A,39
658,"[False, True, True, True, False, False]","[""How many flights are there per round?"",""True or false: The hidden values will change each time I start a new round."",""How much does it cost to observe each hidden value?"",""How many hidden values am I allowed to observe in each round?"",""How is your bonus determined?"",""What does the feedback teach you?""]","[""2"",""True"",""$1.60"",""As many or as few as I wish"",""5% of my best score on any round"",""Whether I chose the move that was best according to the information I had.""]",173424,295000,survey-multi-choice,AMEX6UDG3WZWK,3ERET4BTVM9U32OSFVB2LCIMUD6K9A,39
660,"[False, True, True, True, False, True]","[""How many flights are there per round?"",""True or false: The hidden values will change each time I start a new round."",""How much does it cost to observe each hidden value?"",""How many hidden values am I allowed to observe in each round?"",""How is your bonus determined?"",""What does the feedback teach you?""]","[""2"",""True"",""$1.60"",""As many or as few as I wish"",""5% of my best score on any round"",""All of the above.""]",16521,319896,survey-multi-choice,AMEX6UDG3WZWK,3ERET4BTVM9U32OSFVB2LCIMUD6K9A,39
662,"[False, True, True, True, False, False]","[""How many flights are there per round?"",""True or false: The hidden values will change each time I start a new round."",""How much does it cost to observe each hidden value?"",""How many hidden values am I allowed to observe in each round?"",""How is your bonus determined?"",""What does the feedback teach you?""]","[""2"",""True"",""$1.60"",""As many or as few as I wish"",""5% of my best score on any round"",""Whether I chose the move that was best according to the information I had.""]",17656,345080,survey-multi-choice,AMEX6UDG3WZWK,3ERET4BTVM9U32OSFVB2LCIMUD6K9A,39
664,"[False, True, True, True, False, False]","[""How many flights are there per round?"",""True or false: The hidden values will change each time I start a new round."",""How much does it cost to observe each hidden value?"",""How many hidden values am I allowed to observe in each round?"",""How is your bonus determined?"",""What does the feedback teach you?""]","[""1"",""True"",""$1.60"",""As many or as few as I wish"",""5% of my best score on any round"",""The length of the delay is based on how much more money I could have earned by planning and deciding better.""]",8901,372593,survey-multi-choice,AMEX6UDG3WZWK,3ERET4BTVM9U32OSFVB2LCIMUD6K9A,39
666,"[False, True, True, True, False, False]","[""How many flights are there per round?"",""True or false: The hidden values will change each time I start a new round."",""How much does it cost to observe each hidden value?"",""How many hidden values am I allowed to observe in each round?"",""How is your bonus determined?"",""What does the feedback teach you?""]","[""1"",""True"",""$1.60"",""As many or as few as I wish"",""5% of my best score on any round"",""Whether I observed the rewards of relevant locations.""]",13763,412282,survey-multi-choice,AMEX6UDG3WZWK,3ERET4BTVM9U32OSFVB2LCIMUD6K9A,39
668,"[False, True, True, True, False, False]","[""How many flights are there per round?"",""True or false: The hidden values will change each time I start a new round."",""How much does it cost to observe each hidden value?"",""How many hidden values am I allowed to observe in each round?"",""How is your bonus determined?"",""What does the feedback teach you?""]","[""1"",""True"",""$1.60"",""As many or as few as I wish"",""5% of my best score on any round"",""Whether I chose the move that was best according to the information I had.""]",25586,493899,survey-multi-choice,AMEX6UDG3WZWK,3ERET4BTVM9U32OSFVB2LCIMUD6K9A,39
670,"[False, True, True, True, True, True]","[""How many flights are there per round?"",""True or false: The hidden values will change each time I start a new round."",""How much does it cost to observe each hidden value?"",""How many hidden values am I allowed to observe in each round?"",""How is your bonus determined?"",""What does the feedback teach you?""]","[""1"",""True"",""$1.60"",""As many or as few as I wish"",""5% of my score on a random round"",""All of the above.""]",63571,571507,survey-multi-choice,AMEX6UDG3WZWK,3ERET4BTVM9U32OSFVB2LCIMUD6K9A,39
672,"[False, True, True, True, True, False]","[""How many flights are there per round?"",""True or false: The hidden values will change each time I start a new round."",""How much does it cost to observe each hidden value?"",""How many hidden values am I allowed to observe in each round?"",""How is your bonus determined?"",""What does the feedback teach you?""]","[""1"",""True"",""$1.60"",""As many or as few as I wish"",""5% of my score on a random round"",""Whether I observed the rewards of relevant locations.""]",6921,586267,survey-multi-choice,AMEX6UDG3WZWK,3ERET4BTVM9U32OSFVB2LCIMUD6K9A,39
674,"[False, True, True, True, True, False]","[""How many flights are there per round?"",""True or false: The hidden values will change each time I start a new round."",""How much does it cost to observe each hidden value?"",""How many hidden values am I allowed to observe in each round?"",""How is your bonus determined?"",""What does the feedback teach you?""]","[""1"",""True"",""$1.60"",""As many or as few as I wish"",""5% of my score on a random round"",""Whether I chose the move that was best according to the information I had.""]",5018,597963,survey-multi-choice,AMEX6UDG3WZWK,3ERET4BTVM9U32OSFVB2LCIMUD6K9A,39
676,"[False, True, True, True, True, False]","[""How many flights are there per round?"",""True or false: The hidden values will change each time I start a new round."",""How much does it cost to observe each hidden value?"",""How many hidden values am I allowed to observe in each round?"",""How is your bonus determined?"",""What does the feedback teach you?""]","[""1"",""True"",""$1.60"",""As many or as few as I wish"",""5% of my score on a random round"",""The length of the delay is based on how much more money I could have earned by planning and deciding better.""]",5361,666268,survey-multi-choice,AMEX6UDG3WZWK,3ERET4BTVM9U32OSFVB2LCIMUD6K9A,39
678,"[False, True, True, True, True, True]","[""How many flights are there per round?"",""True or false: The hidden values will change each time I start a new round."",""How much does it cost to observe each hidden value?"",""How many hidden values am I allowed to observe in each round?"",""How is your bonus determined?"",""What does the feedback teach you?""]","[""2"",""True"",""$1.60"",""As many or as few as I wish"",""5% of my score on a random round"",""All of the above.""]",6781,679420,survey-multi-choice,AMEX6UDG3WZWK,3ERET4BTVM9U32OSFVB2LCIMUD6K9A,39
680,"[False, True, True, True, True, False]","[""How many flights are there per round?"",""True or false: The hidden values will change each time I start a new round."",""How much does it cost to observe each hidden value?"",""How many hidden values am I allowed to observe in each round?"",""How is your bonus determined?"",""What does the feedback teach you?""]","[""2"",""True"",""$1.60"",""As many or as few as I wish"",""5% of my score on a random round"",""The length of the delay is based on how much more money I could have earned by planning and deciding better.""]",6372,692388,survey-multi-choice,AMEX6UDG3WZWK,3ERET4BTVM9U32OSFVB2LCIMUD6K9A,39
682,"[False, True, True, True, True, False]","[""How many flights are there per round?"",""True or false: The hidden values will change each time I start a new round."",""How much does it cost to observe each hidden value?"",""How many hidden values am I allowed to observe in each round?"",""How is your bonus determined?"",""What does the feedback teach you?""]","[""2"",""True"",""$1.60"",""As many or as few as I wish"",""5% of my score on a random round"",""Whether I chose the move that was best according to the information I had.""]",5312,704364,survey-multi-choice,AMEX6UDG3WZWK,3ERET4BTVM9U32OSFVB2LCIMUD6K9A,39
684,"[False, True, True, True, True, False]","[""How many flights are there per round?"",""True or false: The hidden values will change each time I start a new round."",""How much does it cost to observe each hidden value?"",""How many hidden values am I allowed to observe in each round?"",""How is your bonus determined?"",""What does the feedback teach you?""]","[""2"",""True"",""$1.60"",""As many or as few as I wish"",""5% of my score on a random round"",""The length of the delay is based on how much more money I could have earned by planning and deciding better.""]",5860,717157,survey-multi-choice,AMEX6UDG3WZWK,3ERET4BTVM9U32OSFVB2LCIMUD6K9A,39
686,"[False, True, True, True, True, True]","[""How many flights are there per round?"",""True or false: The hidden values will change each time I start a new round."",""How much does it cost to observe each hidden value?"",""How many hidden values am I allowed to observe in each round?"",""How is your bonus determined?"",""What does the feedback teach you?""]","[""4"",""True"",""$1.60"",""As many or as few as I wish"",""5% of my score on a random round"",""All of the above.""]",5905,730164,survey-multi-choice,AMEX6UDG3WZWK,3ERET4BTVM9U32OSFVB2LCIMUD6K9A,39
688,"[False, True, True, True, True, False]","[""How many flights are there per round?"",""True or false: The hidden values will change each time I start a new round."",""How much does it cost to observe each hidden value?"",""How many hidden values am I allowed to observe in each round?"",""How is your bonus determined?"",""What does the feedback teach you?""]","[""4"",""True"",""$1.60"",""As many or as few as I wish"",""5% of my score on a random round"",""Whether I observed the rewards of relevant locations.""]",5753,743244,survey-multi-choice,AMEX6UDG3WZWK,3ERET4BTVM9U32OSFVB2LCIMUD6K9A,39
690,"[False, True, True, True, True, False]","[""How many flights are there per round?"",""True or false: The hidden values will change each time I start a new round."",""How much does it cost to observe each hidden value?"",""How many hidden values am I allowed to observe in each round?"",""How is your bonus determined?"",""What does the feedback teach you?""]","[""4"",""True"",""$1.60"",""As many or as few as I wish"",""5% of my score on a random round"",""Whether I chose the move that was best according to the information I had.""]",5391,755293,survey-multi-choice,AMEX6UDG3WZWK,3ERET4BTVM9U32OSFVB2LCIMUD6K9A,39
692,"[False, True, True, True, True, False]","[""How many flights are there per round?"",""True or false: The hidden values will change each time I start a new round."",""How much does it cost to observe each hidden value?"",""How many hidden values am I allowed to observe in each round?"",""How is your bonus determined?"",""What does the feedback teach you?""]","[""4"",""True"",""$1.60"",""As many or as few as I wish"",""5% of my score on a random round"",""The length of the delay is based on how much more money I could have earned by planning and deciding better.""]",5711,768541,survey-multi-choice,AMEX6UDG3WZWK,3ERET4BTVM9U32OSFVB2LCIMUD6K9A,39
694,"[True, True, True, True, True, True]","[""How many flights are there per round?"",""True or false: The hidden values will change each time I start a new round."",""How much does it cost to observe each hidden value?"",""How many hidden values am I allowed to observe in each round?"",""How is your bonus determined?"",""What does the feedback teach you?""]","[""3"",""True"",""$1.60"",""As many or as few as I wish"",""5% of my score on a random round"",""All of the above.""]",14984,789119,survey-multi-choice,AMEX6UDG3WZWK,3ERET4BTVM9U32OSFVB2LCIMUD6K9A,39
705,"[False, True, True, True, False, False]","[""How many flights are there per round?"",""True or false: The hidden values will change each time I start a new round."",""How much does it cost to observe each hidden value?"",""How many hidden values am I allowed to observe in each round?"",""How is your bonus determined?"",""What does the feedback teach you?""]","[""1"",""True"",""$1.60"",""As many or as few as I wish"",""5% of my best score on any round"",""The length of the delay is based on how much more money I could have earned by planning and deciding better.""]",50737,240655,survey-multi-choice,AV8YCU0R4D94I,3LRLIPTPEQ988LYX71P2H7T60VPKAQ,40
707,"[False, True, True, True, True, True]","[""How many flights are there per round?"",""True or false: The hidden values will change each time I start a new round."",""How much does it cost to observe each hidden value?"",""How many hidden values am I allowed to observe in each round?"",""How is your bonus determined?"",""What does the feedback teach you?""]","[""1"",""True"",""$1.60"",""As many or as few as I wish"",""5% of my score on a random round"",""All of the above.""]",32149,407418,survey-multi-choice,AV8YCU0R4D94I,3LRLIPTPEQ988LYX71P2H7T60VPKAQ,40
709,"[False, True, True, True, True, True]","[""How many flights are there per round?"",""True or false: The hidden values will change each time I start a new round."",""How much does it cost to observe each hidden value?"",""How many hidden values am I allowed to observe in each round?"",""How is your bonus determined?"",""What does the feedback teach you?""]","[""4"",""True"",""$1.60"",""As many or as few as I wish"",""5% of my score on a random round"",""All of the above.""]",38367,459211,survey-multi-choice,AV8YCU0R4D94I,3LRLIPTPEQ988LYX71P2H7T60VPKAQ,40
711,"[True, True, True, True, True, True]","[""How many flights are there per round?"",""True or false: The hidden values will change each time I start a new round."",""How much does it cost to observe each hidden value?"",""How many hidden values am I allowed to observe in each round?"",""How is your bonus determined?"",""What does the feedback teach you?""]","[""3"",""True"",""$1.60"",""As many or as few as I wish"",""5% of my score on a random round"",""All of the above.""]",13203,488629,survey-multi-choice,AV8YCU0R4D94I,3LRLIPTPEQ988LYX71P2H7T60VPKAQ,40
722,"[False, True, True, True, True]","[""How many flights are there per round?"",""True or false: The hidden values will change each time I start a new round."",""How much does it cost to observe each hidden value?"",""How many hidden values am I allowed to observe in each round?"",""How is your bonus determined?""]","[""1"",""True"",""$1.60"",""As many or as few as I wish"",""5% of my score on a random round""]",16161,120709,survey-multi-choice,AY8Q6SAWGFLGU,3YGXWBAF70HBNY6S6NYDGLUY3CJ4CL,41
724,"[False, True, True, True, True]","[""How many flights are there per round?"",""True or false: The hidden values will change each time I start a new round."",""How much does it cost to observe each hidden value?"",""How many hidden values am I allowed to observe in each round?"",""How is your bonus determined?""]","[""2"",""True"",""$1.60"",""As many or as few as I wish"",""5% of my score on a random round""]",52451,186078,survey-multi-choice,AY8Q6SAWGFLGU,3YGXWBAF70HBNY6S6NYDGLUY3CJ4CL,41
726,"[True, True, True, True, True]","[""How many flights are there per round?"",""True or false: The hidden values will change each time I start a new round."",""How much does it cost to observe each hidden value?"",""How many hidden values am I allowed to observe in each round?"",""How is your bonus determined?""]","[""3"",""True"",""$1.60"",""As many or as few as I wish"",""5% of my score on a random round""]",12975,211365,survey-multi-choice,AY8Q6SAWGFLGU,3YGXWBAF70HBNY6S6NYDGLUY3CJ4CL,41
