,correct,questions,responses,rt,time_elapsed,trial_type,worker_id,assignment_id,pid
1,"[True, True, True, True, False, True]","[""How many flights are there per round?"",""True or false: The hidden values will change each time I start a new round."",""How much does it cost to observe each hidden value?"",""How many hidden values am I allowed to observe in each round?"",""Which statement is TRUE?"",""What does the feedback teach me?""]","[""3"",""True"",""$0.10"",""As many or as few as I wish"",""My earnings for each round are equal to the <i>sum</i> of the values of all locations I visit (minus the cost of making observations), but these earnings aren't real money."",""All of the above.""]",82248,264311,survey-multi-choice,A10ZOUOZZ3EOAJ,3ZOTGHDK5IBVY856MT3M9O4K3BBOSK,0
3,"[True, True, True, True, True, True]","[""How many flights are there per round?"",""True or false: The hidden values will change each time I start a new round."",""How much does it cost to observe each hidden value?"",""How many hidden values am I allowed to observe in each round?"",""Which statement is TRUE?"",""What does the feedback teach me?""]","[""3"",""True"",""$0.10"",""As many or as few as I wish"",""My earnings for each round are equal to the <i>sum</i> of the values of all locations I visit (minus the cost of making observations), and I will be paid the earnings from one of the 20 rounds."",""All of the above.""]",58035,411515,survey-multi-choice,A10ZOUOZZ3EOAJ,3ZOTGHDK5IBVY856MT3M9O4K3BBOSK,0
26,"[False, True, True, True, True, True]","[""How many flights are there per round?"",""True or false: The hidden values will change each time I start a new round."",""How much does it cost to observe each hidden value?"",""How many hidden values am I allowed to observe in each round?"",""Which statement is TRUE?"",""What does the feedback teach me?""]","[""4"",""True"",""$0.10"",""As many or as few as I wish"",""My earnings for each round are equal to the <i>sum</i> of the values of all locations I visit (minus the cost of making observations), and I will be paid the earnings from one of the 20 rounds."",""All of the above.""]",29773,51709,survey-multi-choice,A142ZRU284W9O,3X31TUMD7XMNY33FWI8AL6DHI6U1LX,1
28,"[False, True, True, True, True, True]","[""How many flights are there per round?"",""True or false: The hidden values will change each time I start a new round."",""How much does it cost to observe each hidden value?"",""How many hidden values am I allowed to observe in each round?"",""Which statement is TRUE?"",""What does the feedback teach me?""]","[""2"",""True"",""$0.10"",""As many or as few as I wish"",""My earnings for each round are equal to the <i>sum</i> of the values of all locations I visit (minus the cost of making observations), and I will be paid the earnings from one of the 20 rounds."",""All of the above.""]",22436,114111,survey-multi-choice,A142ZRU284W9O,3X31TUMD7XMNY33FWI8AL6DHI6U1LX,1
30,"[True, True, True, True, True, True]","[""How many flights are there per round?"",""True or false: The hidden values will change each time I start a new round."",""How much does it cost to observe each hidden value?"",""How many hidden values am I allowed to observe in each round?"",""Which statement is TRUE?"",""What does the feedback teach me?""]","[""3"",""True"",""$0.10"",""As many or as few as I wish"",""My earnings for each round are equal to the <i>sum</i> of the values of all locations I visit (minus the cost of making observations), and I will be paid the earnings from one of the 20 rounds."",""All of the above.""]",17030,153231,survey-multi-choice,A142ZRU284W9O,3X31TUMD7XMNY33FWI8AL6DHI6U1LX,1
53,"[False, True, True, True, False]","[""How many flights are there per round?"",""True or false: The hidden values will change each time I start a new round."",""How much does it cost to observe each hidden value?"",""How many hidden values am I allowed to observe in each round?"",""Which statement is TRUE?""]","[""1"",""True"",""$0.10"",""As many or as few as I wish"",""My earnings for each round are equal to the value of one of the locations I visit (minus the cost of making observations), and I will actually be paid the earnings from one of the 20 rounds.""]",65866,228084,survey-multi-choice,A14ADQ7RUN6TDY,3JV9LGBJWTES83WFRT95KALHF0HGOS,2
55,"[False, True, True, True, True]","[""How many flights are there per round?"",""True or false: The hidden values will change each time I start a new round."",""How much does it cost to observe each hidden value?"",""How many hidden values am I allowed to observe in each round?"",""Which statement is TRUE?""]","[""1"",""True"",""$0.10"",""As many or as few as I wish"",""My earnings for each round are equal to the <i>sum</i> of the values of all locations I visit (minus the cost of making observations), and I will be paid the earnings from one of the 20 rounds.""]",85972,408263,survey-multi-choice,A14ADQ7RUN6TDY,3JV9LGBJWTES83WFRT95KALHF0HGOS,2
57,"[True, True, True, True, True]","[""How many flights are there per round?"",""True or false: The hidden values will change each time I start a new round."",""How much does it cost to observe each hidden value?"",""How many hidden values am I allowed to observe in each round?"",""Which statement is TRUE?""]","[""3"",""True"",""$0.10"",""As many or as few as I wish"",""My earnings for each round are equal to the <i>sum</i> of the values of all locations I visit (minus the cost of making observations), and I will be paid the earnings from one of the 20 rounds.""]",137191,586417,survey-multi-choice,A14ADQ7RUN6TDY,3JV9LGBJWTES83WFRT95KALHF0HGOS,2
80,"[False, True, True, True, True]","[""How many flights are there per round?"",""True or false: The hidden values will change each time I start a new round."",""How much does it cost to observe each hidden value?"",""How many hidden values am I allowed to observe in each round?"",""Which statement is TRUE?""]","[""1"",""True"",""$0.10"",""As many or as few as I wish"",""My earnings for each round are equal to the <i>sum</i> of the values of all locations I visit (minus the cost of making observations), and I will be paid the earnings from one of the 20 rounds.""]",38424,163389,survey-multi-choice,A19LTHK3TA57SF,37ZHEEHM6WMKTLSSFSLJQUADL6337I,3
82,"[False, True, True, True, False]","[""How many flights are there per round?"",""True or false: The hidden values will change each time I start a new round."",""How much does it cost to observe each hidden value?"",""How many hidden values am I allowed to observe in each round?"",""Which statement is TRUE?""]","[""1"",""True"",""$0.10"",""As many or as few as I wish"",""My earnings for each round are equal to the <i>sum</i> of the values of all locations I visit (minus the cost of making observations), but these earnings aren't real money.""]",47400,234330,survey-multi-choice,A19LTHK3TA57SF,37ZHEEHM6WMKTLSSFSLJQUADL6337I,3
84,"[False, True, True, False, False]","[""How many flights are there per round?"",""True or false: The hidden values will change each time I start a new round."",""How much does it cost to observe each hidden value?"",""How many hidden values am I allowed to observe in each round?"",""Which statement is TRUE?""]","[""1"",""True"",""$0.10"",""At most 1"",""My earnings for each round are equal to the <i>sum</i> of the values of all locations I visit (minus the cost of making observations), but these earnings aren't real money.""]",21393,285596,survey-multi-choice,A19LTHK3TA57SF,37ZHEEHM6WMKTLSSFSLJQUADL6337I,3
86,"[False, True, True, False, True]","[""How many flights are there per round?"",""True or false: The hidden values will change each time I start a new round."",""How much does it cost to observe each hidden value?"",""How many hidden values am I allowed to observe in each round?"",""Which statement is TRUE?""]","[""1"",""True"",""$0.10"",""At most 1"",""My earnings for each round are equal to the <i>sum</i> of the values of all locations I visit (minus the cost of making observations), and I will be paid the earnings from one of the 20 rounds.""]",7658,299291,survey-multi-choice,A19LTHK3TA57SF,37ZHEEHM6WMKTLSSFSLJQUADL6337I,3
88,"[False, True, True, False, False]","[""How many flights are there per round?"",""True or false: The hidden values will change each time I start a new round."",""How much does it cost to observe each hidden value?"",""How many hidden values am I allowed to observe in each round?"",""Which statement is TRUE?""]","[""1"",""True"",""$0.10"",""At most 1"",""My earnings for each round are equal to the value of one of the locations I visit (minus the cost of making observations), but these earnings aren't real money.""]",7791,312931,survey-multi-choice,A19LTHK3TA57SF,37ZHEEHM6WMKTLSSFSLJQUADL6337I,3
90,"[False, True, True, False, False]","[""How many flights are there per round?"",""True or false: The hidden values will change each time I start a new round."",""How much does it cost to observe each hidden value?"",""How many hidden values am I allowed to observe in each round?"",""Which statement is TRUE?""]","[""1"",""True"",""$0.10"",""At most 1"",""My earnings for each round are equal to the value of one of the locations I visit (minus the cost of making observations), and I will actually be paid the earnings from one of the 20 rounds.""]",6788,326858,survey-multi-choice,A19LTHK3TA57SF,37ZHEEHM6WMKTLSSFSLJQUADL6337I,3
92,"[False, True, True, True, True]","[""How many flights are there per round?"",""True or false: The hidden values will change each time I start a new round."",""How much does it cost to observe each hidden value?"",""How many hidden values am I allowed to observe in each round?"",""Which statement is TRUE?""]","[""1"",""True"",""$0.10"",""As many or as few as I wish"",""My earnings for each round are equal to the <i>sum</i> of the values of all locations I visit (minus the cost of making observations), and I will be paid the earnings from one of the 20 rounds.""]",14969,377067,survey-multi-choice,A19LTHK3TA57SF,37ZHEEHM6WMKTLSSFSLJQUADL6337I,3
94,"[False, True, True, True, True]","[""How many flights are there per round?"",""True or false: The hidden values will change each time I start a new round."",""How much does it cost to observe each hidden value?"",""How many hidden values am I allowed to observe in each round?"",""Which statement is TRUE?""]","[""1"",""True"",""$0.10"",""As many or as few as I wish"",""My earnings for each round are equal to the <i>sum</i> of the values of all locations I visit (minus the cost of making observations), and I will be paid the earnings from one of the 20 rounds.""]",93786,678708,survey-multi-choice,A19LTHK3TA57SF,37ZHEEHM6WMKTLSSFSLJQUADL6337I,3
96,"[False, True, True, True, False]","[""How many flights are there per round?"",""True or false: The hidden values will change each time I start a new round."",""How much does it cost to observe each hidden value?"",""How many hidden values am I allowed to observe in each round?"",""Which statement is TRUE?""]","[""1"",""True"",""$0.10"",""As many or as few as I wish"",""My earnings for each round are equal to the <i>sum</i> of the values of all locations I visit (minus the cost of making observations), but these earnings aren't real money.""]",26704,711956,survey-multi-choice,A19LTHK3TA57SF,37ZHEEHM6WMKTLSSFSLJQUADL6337I,3
98,"[False, True, True, True, False]","[""How many flights are there per round?"",""True or false: The hidden values will change each time I start a new round."",""How much does it cost to observe each hidden value?"",""How many hidden values am I allowed to observe in each round?"",""Which statement is TRUE?""]","[""1"",""True"",""$0.10"",""As many or as few as I wish"",""My earnings for each round are equal to the value of one of the locations I visit (minus the cost of making observations), and I will actually be paid the earnings from one of the 20 rounds.""]",82787,850012,survey-multi-choice,A19LTHK3TA57SF,37ZHEEHM6WMKTLSSFSLJQUADL6337I,3
100,"[False, True, True, True, False]","[""How many flights are there per round?"",""True or false: The hidden values will change each time I start a new round."",""How much does it cost to observe each hidden value?"",""How many hidden values am I allowed to observe in each round?"",""Which statement is TRUE?""]","[""1"",""True"",""$0.10"",""As many or as few as I wish"",""My earnings for each round are equal to the value of one of the locations I visit (minus the cost of making observations), but these earnings aren't real money.""]",18962,991420,survey-multi-choice,A19LTHK3TA57SF,37ZHEEHM6WMKTLSSFSLJQUADL6337I,3
102,"[False, False, True, True, True]","[""How many flights are there per round?"",""True or false: The hidden values will change each time I start a new round."",""How much does it cost to observe each hidden value?"",""How many hidden values am I allowed to observe in each round?"",""Which statement is TRUE?""]","[""1"",""False"",""$0.10"",""As many or as few as I wish"",""My earnings for each round are equal to the <i>sum</i> of the values of all locations I visit (minus the cost of making observations), and I will be paid the earnings from one of the 20 rounds.""]",34831,1032212,survey-multi-choice,A19LTHK3TA57SF,37ZHEEHM6WMKTLSSFSLJQUADL6337I,3
104,"[False, False, True, True, False]","[""How many flights are there per round?"",""True or false: The hidden values will change each time I start a new round."",""How much does it cost to observe each hidden value?"",""How many hidden values am I allowed to observe in each round?"",""Which statement is TRUE?""]","[""1"",""False"",""$0.10"",""As many or as few as I wish"",""My earnings for each round are equal to the <i>sum</i> of the values of all locations I visit (minus the cost of making observations), but these earnings aren't real money.""]",10378,1048701,survey-multi-choice,A19LTHK3TA57SF,37ZHEEHM6WMKTLSSFSLJQUADL6337I,3
106,"[False, False, True, True, False]","[""How many flights are there per round?"",""True or false: The hidden values will change each time I start a new round."",""How much does it cost to observe each hidden value?"",""How many hidden values am I allowed to observe in each round?"",""Which statement is TRUE?""]","[""1"",""False"",""$0.10"",""As many or as few as I wish"",""My earnings for each round are equal to the value of one of the locations I visit (minus the cost of making observations), and I will actually be paid the earnings from one of the 20 rounds.""]",7802,1062163,survey-multi-choice,A19LTHK3TA57SF,37ZHEEHM6WMKTLSSFSLJQUADL6337I,3
108,"[False, False, True, True, False]","[""How many flights are there per round?"",""True or false: The hidden values will change each time I start a new round."",""How much does it cost to observe each hidden value?"",""How many hidden values am I allowed to observe in each round?"",""Which statement is TRUE?""]","[""1"",""False"",""$0.10"",""As many or as few as I wish"",""My earnings for each round are equal to the value of one of the locations I visit (minus the cost of making observations), but these earnings aren't real money.""]",5858,1076379,survey-multi-choice,A19LTHK3TA57SF,37ZHEEHM6WMKTLSSFSLJQUADL6337I,3
110,"[False, True, True, True, False]","[""How many flights are there per round?"",""True or false: The hidden values will change each time I start a new round."",""How much does it cost to observe each hidden value?"",""How many hidden values am I allowed to observe in each round?"",""Which statement is TRUE?""]","[""2"",""True"",""$0.10"",""As many or as few as I wish"",""My earnings for each round are equal to the value of one of the locations I visit (minus the cost of making observations), and I will actually be paid the earnings from one of the 20 rounds.""]",38188,1120915,survey-multi-choice,A19LTHK3TA57SF,37ZHEEHM6WMKTLSSFSLJQUADL6337I,3
112,"[False, True, True, True, True]","[""How many flights are there per round?"",""True or false: The hidden values will change each time I start a new round."",""How much does it cost to observe each hidden value?"",""How many hidden values am I allowed to observe in each round?"",""Which statement is TRUE?""]","[""4"",""True"",""$0.10"",""As many or as few as I wish"",""My earnings for each round are equal to the <i>sum</i> of the values of all locations I visit (minus the cost of making observations), and I will be paid the earnings from one of the 20 rounds.""]",6720,1185475,survey-multi-choice,A19LTHK3TA57SF,37ZHEEHM6WMKTLSSFSLJQUADL6337I,3
114,"[False, True, True, True, False]","[""How many flights are there per round?"",""True or false: The hidden values will change each time I start a new round."",""How much does it cost to observe each hidden value?"",""How many hidden values am I allowed to observe in each round?"",""Which statement is TRUE?""]","[""4"",""True"",""$0.10"",""As many or as few as I wish"",""My earnings for each round are equal to the <i>sum</i> of the values of all locations I visit (minus the cost of making observations), but these earnings aren't real money.""]",6851,1199531,survey-multi-choice,A19LTHK3TA57SF,37ZHEEHM6WMKTLSSFSLJQUADL6337I,3
116,"[False, True, True, True, False]","[""How many flights are there per round?"",""True or false: The hidden values will change each time I start a new round."",""How much does it cost to observe each hidden value?"",""How many hidden values am I allowed to observe in each round?"",""Which statement is TRUE?""]","[""4"",""True"",""$0.10"",""As many or as few as I wish"",""My earnings for each round are equal to the value of one of the locations I visit (minus the cost of making observations), and I will actually be paid the earnings from one of the 20 rounds.""]",12541,1217427,survey-multi-choice,A19LTHK3TA57SF,37ZHEEHM6WMKTLSSFSLJQUADL6337I,3
118,"[False, True, True, True, False]","[""How many flights are there per round?"",""True or false: The hidden values will change each time I start a new round."",""How much does it cost to observe each hidden value?"",""How many hidden values am I allowed to observe in each round?"",""Which statement is TRUE?""]","[""4"",""True"",""$0.10"",""As many or as few as I wish"",""My earnings for each round are equal to the value of one of the locations I visit (minus the cost of making observations), but these earnings aren't real money.""]",6650,1229891,survey-multi-choice,A19LTHK3TA57SF,37ZHEEHM6WMKTLSSFSLJQUADL6337I,3
120,"[False, True, True, False, False]","[""How many flights are there per round?"",""True or false: The hidden values will change each time I start a new round."",""How much does it cost to observe each hidden value?"",""How many hidden values am I allowed to observe in each round?"",""Which statement is TRUE?""]","[""1"",""True"",""$0.10"",""At most 1"",""My earnings for each round are equal to the value of one of the locations I visit (minus the cost of making observations), and I will actually be paid the earnings from one of the 20 rounds.""]",20872,1261180,survey-multi-choice,A19LTHK3TA57SF,37ZHEEHM6WMKTLSSFSLJQUADL6337I,3
122,"[False, True, True, False, False]","[""How many flights are there per round?"",""True or false: The hidden values will change each time I start a new round."",""How much does it cost to observe each hidden value?"",""How many hidden values am I allowed to observe in each round?"",""Which statement is TRUE?""]","[""1"",""True"",""$0.10"",""At most 1"",""My earnings for each round are equal to the value of one of the locations I visit (minus the cost of making observations), but these earnings aren't real money.""]",5868,1272269,survey-multi-choice,A19LTHK3TA57SF,37ZHEEHM6WMKTLSSFSLJQUADL6337I,3
124,"[False, True, True, False, False]","[""How many flights are there per round?"",""True or false: The hidden values will change each time I start a new round."",""How much does it cost to observe each hidden value?"",""How many hidden values am I allowed to observe in each round?"",""Which statement is TRUE?""]","[""1"",""True"",""$0.10"",""At most 1"",""My earnings for each round are equal to the value of one of the locations I visit (minus the cost of making observations), but these earnings aren't real money.""]",8126,1288292,survey-multi-choice,A19LTHK3TA57SF,37ZHEEHM6WMKTLSSFSLJQUADL6337I,3
126,"[False, True, True, True, False]","[""How many flights are there per round?"",""True or false: The hidden values will change each time I start a new round."",""How much does it cost to observe each hidden value?"",""How many hidden values am I allowed to observe in each round?"",""Which statement is TRUE?""]","[""2"",""True"",""$0.10"",""As many or as few as I wish"",""My earnings for each round are equal to the value of one of the locations I visit (minus the cost of making observations), and I will actually be paid the earnings from one of the 20 rounds.""]",23430,1320691,survey-multi-choice,A19LTHK3TA57SF,37ZHEEHM6WMKTLSSFSLJQUADL6337I,3
128,"[False, True, True, True, False]","[""How many flights are there per round?"",""True or false: The hidden values will change each time I start a new round."",""How much does it cost to observe each hidden value?"",""How many hidden values am I allowed to observe in each round?"",""Which statement is TRUE?""]","[""2"",""True"",""$0.10"",""As many or as few as I wish"",""My earnings for each round are equal to the value of one of the locations I visit (minus the cost of making observations), but these earnings aren't real money.""]",5508,1332395,survey-multi-choice,A19LTHK3TA57SF,37ZHEEHM6WMKTLSSFSLJQUADL6337I,3
130,"[False, True, True, True, True]","[""How many flights are there per round?"",""True or false: The hidden values will change each time I start a new round."",""How much does it cost to observe each hidden value?"",""How many hidden values am I allowed to observe in each round?"",""Which statement is TRUE?""]","[""2"",""True"",""$0.10"",""As many or as few as I wish"",""My earnings for each round are equal to the <i>sum</i> of the values of all locations I visit (minus the cost of making observations), and I will be paid the earnings from one of the 20 rounds.""]",16003,1353683,survey-multi-choice,A19LTHK3TA57SF,37ZHEEHM6WMKTLSSFSLJQUADL6337I,3
132,"[False, True, True, True, False]","[""How many flights are there per round?"",""True or false: The hidden values will change each time I start a new round."",""How much does it cost to observe each hidden value?"",""How many hidden values am I allowed to observe in each round?"",""Which statement is TRUE?""]","[""1"",""True"",""$0.10"",""As many or as few as I wish"",""My earnings for each round are equal to the <i>sum</i> of the values of all locations I visit (minus the cost of making observations), but these earnings aren't real money.""]",7268,1366619,survey-multi-choice,A19LTHK3TA57SF,37ZHEEHM6WMKTLSSFSLJQUADL6337I,3
134,"[True, True, True, True, False]","[""How many flights are there per round?"",""True or false: The hidden values will change each time I start a new round."",""How much does it cost to observe each hidden value?"",""How many hidden values am I allowed to observe in each round?"",""Which statement is TRUE?""]","[""3"",""True"",""$0.10"",""As many or as few as I wish"",""My earnings for each round are equal to the value of one of the locations I visit (minus the cost of making observations), and I will actually be paid the earnings from one of the 20 rounds.""]",9148,1420811,survey-multi-choice,A19LTHK3TA57SF,37ZHEEHM6WMKTLSSFSLJQUADL6337I,3
136,"[True, True, True, True, False]","[""How many flights are there per round?"",""True or false: The hidden values will change each time I start a new round."",""How much does it cost to observe each hidden value?"",""How many hidden values am I allowed to observe in each round?"",""Which statement is TRUE?""]","[""3"",""True"",""$0.10"",""As many or as few as I wish"",""My earnings for each round are equal to the value of one of the locations I visit (minus the cost of making observations), but these earnings aren't real money.""]",5758,1433963,survey-multi-choice,A19LTHK3TA57SF,37ZHEEHM6WMKTLSSFSLJQUADL6337I,3
138,"[True, True, True, True, True]","[""How many flights are there per round?"",""True or false: The hidden values will change each time I start a new round."",""How much does it cost to observe each hidden value?"",""How many hidden values am I allowed to observe in each round?"",""Which statement is TRUE?""]","[""3"",""True"",""$0.10"",""As many or as few as I wish"",""My earnings for each round are equal to the <i>sum</i> of the values of all locations I visit (minus the cost of making observations), and I will be paid the earnings from one of the 20 rounds.""]",8975,1447181,survey-multi-choice,A19LTHK3TA57SF,37ZHEEHM6WMKTLSSFSLJQUADL6337I,3
161,"[False, True, True, True, True]","[""How many flights are there per round?"",""True or false: The hidden values will change each time I start a new round."",""How much does it cost to observe each hidden value?"",""How many hidden values am I allowed to observe in each round?"",""Which statement is TRUE?""]","[""1"",""True"",""$0.10"",""As many or as few as I wish"",""My earnings for each round are equal to the <i>sum</i> of the values of all locations I visit (minus the cost of making observations), and I will be paid the earnings from one of the 20 rounds.""]",55778,172729,survey-multi-choice,A19LVWX8ZLO6CS,3WQ3B2KGE8GBLUH355JG73HC6CJB1N,4
163,"[False, True, True, False, True]","[""How many flights are there per round?"",""True or false: The hidden values will change each time I start a new round."",""How much does it cost to observe each hidden value?"",""How many hidden values am I allowed to observe in each round?"",""Which statement is TRUE?""]","[""1"",""True"",""$0.10"",""At most 15"",""My earnings for each round are equal to the <i>sum</i> of the values of all locations I visit (minus the cost of making observations), and I will be paid the earnings from one of the 20 rounds.""]",24944,272273,survey-multi-choice,A19LVWX8ZLO6CS,3WQ3B2KGE8GBLUH355JG73HC6CJB1N,4
165,"[False, True, True, True, True]","[""How many flights are there per round?"",""True or false: The hidden values will change each time I start a new round."",""How much does it cost to observe each hidden value?"",""How many hidden values am I allowed to observe in each round?"",""Which statement is TRUE?""]","[""2"",""True"",""$0.10"",""As many or as few as I wish"",""My earnings for each round are equal to the <i>sum</i> of the values of all locations I visit (minus the cost of making observations), and I will be paid the earnings from one of the 20 rounds.""]",21127,369223,survey-multi-choice,A19LVWX8ZLO6CS,3WQ3B2KGE8GBLUH355JG73HC6CJB1N,4
167,"[False, True, True, True, False]","[""How many flights are there per round?"",""True or false: The hidden values will change each time I start a new round."",""How much does it cost to observe each hidden value?"",""How many hidden values am I allowed to observe in each round?"",""Which statement is TRUE?""]","[""1"",""True"",""$0.10"",""As many or as few as I wish"",""My earnings for each round are equal to the <i>sum</i> of the values of all locations I visit (minus the cost of making observations), but these earnings aren't real money.""]",56235,524270,survey-multi-choice,A19LVWX8ZLO6CS,3WQ3B2KGE8GBLUH355JG73HC6CJB1N,4
169,"[True, True, True, True, True]","[""How many flights are there per round?"",""True or false: The hidden values will change each time I start a new round."",""How much does it cost to observe each hidden value?"",""How many hidden values am I allowed to observe in each round?"",""Which statement is TRUE?""]","[""3"",""True"",""$0.10"",""As many or as few as I wish"",""My earnings for each round are equal to the <i>sum</i> of the values of all locations I visit (minus the cost of making observations), and I will be paid the earnings from one of the 20 rounds.""]",7679,605152,survey-multi-choice,A19LVWX8ZLO6CS,3WQ3B2KGE8GBLUH355JG73HC6CJB1N,4
192,"[False, True, True, False, True]","[""How many flights are there per round?"",""True or false: The hidden values will change each time I start a new round."",""How much does it cost to observe each hidden value?"",""How many hidden values am I allowed to observe in each round?"",""Which statement is TRUE?""]","[""4"",""True"",""$0.10"",""At most 5"",""My earnings for each round are equal to the <i>sum</i> of the values of all locations I visit (minus the cost of making observations), and I will be paid the earnings from one of the 20 rounds.""]",29026,61428,survey-multi-choice,A1B4WL7N3ACF2T,32SCWG5HIH48WAJAUGDYXJDIVRCP6I,5
194,"[False, True, True, True, True]","[""How many flights are there per round?"",""True or false: The hidden values will change each time I start a new round."",""How much does it cost to observe each hidden value?"",""How many hidden values am I allowed to observe in each round?"",""Which statement is TRUE?""]","[""4"",""True"",""$0.10"",""As many or as few as I wish"",""My earnings for each round are equal to the <i>sum</i> of the values of all locations I visit (minus the cost of making observations), and I will be paid the earnings from one of the 20 rounds.""]",26709,132973,survey-multi-choice,A1B4WL7N3ACF2T,32SCWG5HIH48WAJAUGDYXJDIVRCP6I,5
196,"[True, True, True, True, True]","[""How many flights are there per round?"",""True or false: The hidden values will change each time I start a new round."",""How much does it cost to observe each hidden value?"",""How many hidden values am I allowed to observe in each round?"",""Which statement is TRUE?""]","[""3"",""True"",""$0.10"",""As many or as few as I wish"",""My earnings for each round are equal to the <i>sum</i> of the values of all locations I visit (minus the cost of making observations), and I will be paid the earnings from one of the 20 rounds.""]",35404,225110,survey-multi-choice,A1B4WL7N3ACF2T,32SCWG5HIH48WAJAUGDYXJDIVRCP6I,5
219,"[True, True, True, True, True, True]","[""How many flights are there per round?"",""True or false: The hidden values will change each time I start a new round."",""How much does it cost to observe each hidden value?"",""How many hidden values am I allowed to observe in each round?"",""Which statement is TRUE?"",""What does the feedback teach me?""]","[""3"",""True"",""$0.10"",""As many or as few as I wish"",""My earnings for each round are equal to the <i>sum</i> of the values of all locations I visit (minus the cost of making observations), and I will be paid the earnings from one of the 20 rounds."",""All of the above.""]",78697,209295,survey-multi-choice,A1C0H8G0YI15MN,3SNLUL3WO4N370UDY6IUW8IET3RLUG,6
242,"[False, True, True, True, True, True]","[""How many flights are there per round?"",""True or false: The hidden values will change each time I start a new round."",""How much does it cost to observe each hidden value?"",""How many hidden values am I allowed to observe in each round?"",""Which statement is TRUE?"",""What does the feedback teach me?""]","[""1"",""True"",""$0.10"",""As many or as few as I wish"",""My earnings for each round are equal to the <i>sum</i> of the values of all locations I visit (minus the cost of making observations), and I will be paid the earnings from one of the 20 rounds."",""All of the above.""]",246399,389545,survey-multi-choice,A1DWDCD4CHM68O,32M8BPYGATMICHLCTYW00DPV3RIGIX,7
244,"[False, True, True, True, True, False]","[""How many flights are there per round?"",""True or false: The hidden values will change each time I start a new round."",""How much does it cost to observe each hidden value?"",""How many hidden values am I allowed to observe in each round?"",""Which statement is TRUE?"",""What does the feedback teach me?""]","[""1"",""True"",""$0.10"",""As many or as few as I wish"",""My earnings for each round are equal to the <i>sum</i> of the values of all locations I visit (minus the cost of making observations), and I will be paid the earnings from one of the 20 rounds."",""The duration of the delay tells me how much more money I could have earned by planning and deciding better.""]",24186,422320,survey-multi-choice,A1DWDCD4CHM68O,32M8BPYGATMICHLCTYW00DPV3RIGIX,7
246,"[False, True, True, True, True, False]","[""How many flights are there per round?"",""True or false: The hidden values will change each time I start a new round."",""How much does it cost to observe each hidden value?"",""How many hidden values am I allowed to observe in each round?"",""Which statement is TRUE?"",""What does the feedback teach me?""]","[""1"",""True"",""$0.10"",""As many or as few as I wish"",""My earnings for each round are equal to the <i>sum</i> of the values of all locations I visit (minus the cost of making observations), and I will be paid the earnings from one of the 20 rounds."",""Whether I chose the move that was best according to the information I had.""]",54515,484565,survey-multi-choice,A1DWDCD4CHM68O,32M8BPYGATMICHLCTYW00DPV3RIGIX,7
248,"[False, True, True, True, False, True]","[""How many flights are there per round?"",""True or false: The hidden values will change each time I start a new round."",""How much does it cost to observe each hidden value?"",""How many hidden values am I allowed to observe in each round?"",""Which statement is TRUE?"",""What does the feedback teach me?""]","[""1"",""True"",""$0.10"",""As many or as few as I wish"",""My earnings for each round are equal to the value of one of the locations I visit (minus the cost of making observations), and I will actually be paid the earnings from one of the 20 rounds."",""All of the above.""]",67329,568131,survey-multi-choice,A1DWDCD4CHM68O,32M8BPYGATMICHLCTYW00DPV3RIGIX,7
250,"[False, True, True, True, True, False]","[""How many flights are there per round?"",""True or false: The hidden values will change each time I start a new round."",""How much does it cost to observe each hidden value?"",""How many hidden values am I allowed to observe in each round?"",""Which statement is TRUE?"",""What does the feedback teach me?""]","[""1"",""True"",""$0.10"",""As many or as few as I wish"",""My earnings for each round are equal to the <i>sum</i> of the values of all locations I visit (minus the cost of making observations), and I will be paid the earnings from one of the 20 rounds."",""Whether I observed the rewards of relevant locations.""]",23171,598796,survey-multi-choice,A1DWDCD4CHM68O,32M8BPYGATMICHLCTYW00DPV3RIGIX,7
252,"[False, True, True, True, False, True]","[""How many flights are there per round?"",""True or false: The hidden values will change each time I start a new round."",""How much does it cost to observe each hidden value?"",""How many hidden values am I allowed to observe in each round?"",""Which statement is TRUE?"",""What does the feedback teach me?""]","[""1"",""True"",""$0.10"",""As many or as few as I wish"",""My earnings for each round are equal to the value of one of the locations I visit (minus the cost of making observations), but these earnings aren't real money."",""All of the above.""]",11057,616118,survey-multi-choice,A1DWDCD4CHM68O,32M8BPYGATMICHLCTYW00DPV3RIGIX,7
254,"[False, True, True, True, True, True]","[""How many flights are there per round?"",""True or false: The hidden values will change each time I start a new round."",""How much does it cost to observe each hidden value?"",""How many hidden values am I allowed to observe in each round?"",""Which statement is TRUE?"",""What does the feedback teach me?""]","[""4"",""True"",""$0.10"",""As many or as few as I wish"",""My earnings for each round are equal to the <i>sum</i> of the values of all locations I visit (minus the cost of making observations), and I will be paid the earnings from one of the 20 rounds."",""All of the above.""]",18281,641197,survey-multi-choice,A1DWDCD4CHM68O,32M8BPYGATMICHLCTYW00DPV3RIGIX,7
256,"[True, True, True, True, True, True]","[""How many flights are there per round?"",""True or false: The hidden values will change each time I start a new round."",""How much does it cost to observe each hidden value?"",""How many hidden values am I allowed to observe in each round?"",""Which statement is TRUE?"",""What does the feedback teach me?""]","[""3"",""True"",""$0.10"",""As many or as few as I wish"",""My earnings for each round are equal to the <i>sum</i> of the values of all locations I visit (minus the cost of making observations), and I will be paid the earnings from one of the 20 rounds."",""All of the above.""]",13280,675199,survey-multi-choice,A1DWDCD4CHM68O,32M8BPYGATMICHLCTYW00DPV3RIGIX,7
279,"[True, True, True, True, True]","[""How many flights are there per round?"",""True or false: The hidden values will change each time I start a new round."",""How much does it cost to observe each hidden value?"",""How many hidden values am I allowed to observe in each round?"",""Which statement is TRUE?""]","[""3"",""True"",""$0.10"",""As many or as few as I wish"",""My earnings for each round are equal to the <i>sum</i> of the values of all locations I visit (minus the cost of making observations), and I will be paid the earnings from one of the 20 rounds.""]",85350,267203,survey-multi-choice,A1HBU82366WX00,3YW4XOSQKQLQHTQ95W0BCT90VXMU1J,8
302,"[False, True, True, True, False, True]","[""How many flights are there per round?"",""True or false: The hidden values will change each time I start a new round."",""How much does it cost to observe each hidden value?"",""How many hidden values am I allowed to observe in each round?"",""Which statement is TRUE?"",""What does the feedback teach me?""]","[""1"",""True"",""$0.10"",""As many or as few as I wish"",""My earnings for each round are equal to the value of one of the locations I visit (minus the cost of making observations), and I will actually be paid the earnings from one of the 20 rounds."",""All of the above.""]",45037,554770,survey-multi-choice,A1KEA2Z47S3UPI,3AZHRG4CU4K6BAS8UT0ABF0QDS130M,9
304,"[False, True, True, True, True, True]","[""How many flights are there per round?"",""True or false: The hidden values will change each time I start a new round."",""How much does it cost to observe each hidden value?"",""How many hidden values am I allowed to observe in each round?"",""Which statement is TRUE?"",""What does the feedback teach me?""]","[""1"",""True"",""$0.10"",""As many or as few as I wish"",""My earnings for each round are equal to the <i>sum</i> of the values of all locations I visit (minus the cost of making observations), and I will be paid the earnings from one of the 20 rounds."",""All of the above.""]",39426,633835,survey-multi-choice,A1KEA2Z47S3UPI,3AZHRG4CU4K6BAS8UT0ABF0QDS130M,9
306,"[False, True, True, True, True, False]","[""How many flights are there per round?"",""True or false: The hidden values will change each time I start a new round."",""How much does it cost to observe each hidden value?"",""How many hidden values am I allowed to observe in each round?"",""Which statement is TRUE?"",""What does the feedback teach me?""]","[""1"",""True"",""$0.10"",""As many or as few as I wish"",""My earnings for each round are equal to the <i>sum</i> of the values of all locations I visit (minus the cost of making observations), and I will be paid the earnings from one of the 20 rounds."",""Whether I chose the move that was best according to the information I had.""]",37909,699108,survey-multi-choice,A1KEA2Z47S3UPI,3AZHRG4CU4K6BAS8UT0ABF0QDS130M,9
308,"[False, True, True, True, True, False]","[""How many flights are there per round?"",""True or false: The hidden values will change each time I start a new round."",""How much does it cost to observe each hidden value?"",""How many hidden values am I allowed to observe in each round?"",""Which statement is TRUE?"",""What does the feedback teach me?""]","[""2"",""True"",""$0.10"",""As many or as few as I wish"",""My earnings for each round are equal to the <i>sum</i> of the values of all locations I visit (minus the cost of making observations), and I will be paid the earnings from one of the 20 rounds."",""Whether I chose the move that was best according to the information I had.""]",15021,750037,survey-multi-choice,A1KEA2Z47S3UPI,3AZHRG4CU4K6BAS8UT0ABF0QDS130M,9
310,"[False, True, True, True, True, False]","[""How many flights are there per round?"",""True or false: The hidden values will change each time I start a new round."",""How much does it cost to observe each hidden value?"",""How many hidden values am I allowed to observe in each round?"",""Which statement is TRUE?"",""What does the feedback teach me?""]","[""1"",""True"",""$0.10"",""As many or as few as I wish"",""My earnings for each round are equal to the <i>sum</i> of the values of all locations I visit (minus the cost of making observations), and I will be paid the earnings from one of the 20 rounds."",""The duration of the delay tells me how much more money I could have earned by planning and deciding better.""]",35601,852202,survey-multi-choice,A1KEA2Z47S3UPI,3AZHRG4CU4K6BAS8UT0ABF0QDS130M,9
312,"[False, True, True, True, True, False]","[""How many flights are there per round?"",""True or false: The hidden values will change each time I start a new round."",""How much does it cost to observe each hidden value?"",""How many hidden values am I allowed to observe in each round?"",""Which statement is TRUE?"",""What does the feedback teach me?""]","[""2"",""True"",""$0.10"",""As many or as few as I wish"",""My earnings for each round are equal to the <i>sum</i> of the values of all locations I visit (minus the cost of making observations), and I will be paid the earnings from one of the 20 rounds."",""Whether I chose the move that was best according to the information I had.""]",15423,874491,survey-multi-choice,A1KEA2Z47S3UPI,3AZHRG4CU4K6BAS8UT0ABF0QDS130M,9
314,"[True, True, True, True, True, False]","[""How many flights are there per round?"",""True or false: The hidden values will change each time I start a new round."",""How much does it cost to observe each hidden value?"",""How many hidden values am I allowed to observe in each round?"",""Which statement is TRUE?"",""What does the feedback teach me?""]","[""3"",""True"",""$0.10"",""As many or as few as I wish"",""My earnings for each round are equal to the <i>sum</i> of the values of all locations I visit (minus the cost of making observations), and I will be paid the earnings from one of the 20 rounds."",""The duration of the delay tells me how much more money I could have earned by planning and deciding better.""]",22917,1008843,survey-multi-choice,A1KEA2Z47S3UPI,3AZHRG4CU4K6BAS8UT0ABF0QDS130M,9
316,"[False, True, True, True, True, True]","[""How many flights are there per round?"",""True or false: The hidden values will change each time I start a new round."",""How much does it cost to observe each hidden value?"",""How many hidden values am I allowed to observe in each round?"",""Which statement is TRUE?"",""What does the feedback teach me?""]","[""1"",""True"",""$0.10"",""As many or as few as I wish"",""My earnings for each round are equal to the <i>sum</i> of the values of all locations I visit (minus the cost of making observations), and I will be paid the earnings from one of the 20 rounds."",""All of the above.""]",23748,1046993,survey-multi-choice,A1KEA2Z47S3UPI,3AZHRG4CU4K6BAS8UT0ABF0QDS130M,9
318,"[True, True, True, True, True, True]","[""How many flights are there per round?"",""True or false: The hidden values will change each time I start a new round."",""How much does it cost to observe each hidden value?"",""How many hidden values am I allowed to observe in each round?"",""Which statement is TRUE?"",""What does the feedback teach me?""]","[""3"",""True"",""$0.10"",""As many or as few as I wish"",""My earnings for each round are equal to the <i>sum</i> of the values of all locations I visit (minus the cost of making observations), and I will be paid the earnings from one of the 20 rounds."",""All of the above.""]",8504,1058179,survey-multi-choice,A1KEA2Z47S3UPI,3AZHRG4CU4K6BAS8UT0ABF0QDS130M,9
341,"[False, True, True, True, False, True]","[""How many flights are there per round?"",""True or false: The hidden values will change each time I start a new round."",""How much does it cost to observe each hidden value?"",""How many hidden values am I allowed to observe in each round?"",""Which statement is TRUE?"",""What does the feedback teach me?""]","[""1"",""True"",""$0.10"",""As many or as few as I wish"",""My earnings for each round are equal to the value of one of the locations I visit (minus the cost of making observations), and I will actually be paid the earnings from one of the 20 rounds."",""All of the above.""]",73296,207386,survey-multi-choice,A1KISJJJMHEFVP,3QUO65DNQUOBDLXABYYMOPM8O8WOU0,10
343,"[False, True, True, True, True, True]","[""How many flights are there per round?"",""True or false: The hidden values will change each time I start a new round."",""How much does it cost to observe each hidden value?"",""How many hidden values am I allowed to observe in each round?"",""Which statement is TRUE?"",""What does the feedback teach me?""]","[""1"",""True"",""$0.10"",""As many or as few as I wish"",""My earnings for each round are equal to the <i>sum</i> of the values of all locations I visit (minus the cost of making observations), and I will be paid the earnings from one of the 20 rounds."",""All of the above.""]",59792,391010,survey-multi-choice,A1KISJJJMHEFVP,3QUO65DNQUOBDLXABYYMOPM8O8WOU0,10
345,"[False, True, True, True, False, False]","[""How many flights are there per round?"",""True or false: The hidden values will change each time I start a new round."",""How much does it cost to observe each hidden value?"",""How many hidden values am I allowed to observe in each round?"",""Which statement is TRUE?"",""What does the feedback teach me?""]","[""1"",""True"",""$0.10"",""As many or as few as I wish"",""My earnings for each round are equal to the value of one of the locations I visit (minus the cost of making observations), and I will actually be paid the earnings from one of the 20 rounds."",""Whether I chose the move that was best according to the information I had.""]",91734,566726,survey-multi-choice,A1KISJJJMHEFVP,3QUO65DNQUOBDLXABYYMOPM8O8WOU0,10
347,"[False, True, True, True, False, True]","[""How many flights are there per round?"",""True or false: The hidden values will change each time I start a new round."",""How much does it cost to observe each hidden value?"",""How many hidden values am I allowed to observe in each round?"",""Which statement is TRUE?"",""What does the feedback teach me?""]","[""1"",""True"",""$0.10"",""As many or as few as I wish"",""My earnings for each round are equal to the value of one of the locations I visit (minus the cost of making observations), and I will actually be paid the earnings from one of the 20 rounds."",""All of the above.""]",17360,595326,survey-multi-choice,A1KISJJJMHEFVP,3QUO65DNQUOBDLXABYYMOPM8O8WOU0,10
349,"[False, True, True, True, True, False]","[""How many flights are there per round?"",""True or false: The hidden values will change each time I start a new round."",""How much does it cost to observe each hidden value?"",""How many hidden values am I allowed to observe in each round?"",""Which statement is TRUE?"",""What does the feedback teach me?""]","[""1"",""True"",""$0.10"",""As many or as few as I wish"",""My earnings for each round are equal to the <i>sum</i> of the values of all locations I visit (minus the cost of making observations), and I will be paid the earnings from one of the 20 rounds."",""Whether I chose the move that was best according to the information I had.""]",55781,660972,survey-multi-choice,A1KISJJJMHEFVP,3QUO65DNQUOBDLXABYYMOPM8O8WOU0,10
351,"[False, True, True, True, True, True]","[""How many flights are there per round?"",""True or false: The hidden values will change each time I start a new round."",""How much does it cost to observe each hidden value?"",""How many hidden values am I allowed to observe in each round?"",""Which statement is TRUE?"",""What does the feedback teach me?""]","[""1"",""True"",""$0.10"",""As many or as few as I wish"",""My earnings for each round are equal to the <i>sum</i> of the values of all locations I visit (minus the cost of making observations), and I will be paid the earnings from one of the 20 rounds."",""All of the above.""]",11382,679716,survey-multi-choice,A1KISJJJMHEFVP,3QUO65DNQUOBDLXABYYMOPM8O8WOU0,10
353,"[False, True, True, True, False, True]","[""How many flights are there per round?"",""True or false: The hidden values will change each time I start a new round."",""How much does it cost to observe each hidden value?"",""How many hidden values am I allowed to observe in each round?"",""Which statement is TRUE?"",""What does the feedback teach me?""]","[""1"",""True"",""$0.10"",""As many or as few as I wish"",""My earnings for each round are equal to the <i>sum</i> of the values of all locations I visit (minus the cost of making observations), but these earnings aren't real money."",""All of the above.""]",9611,701788,survey-multi-choice,A1KISJJJMHEFVP,3QUO65DNQUOBDLXABYYMOPM8O8WOU0,10
355,"[True, True, True, True, True, True]","[""How many flights are there per round?"",""True or false: The hidden values will change each time I start a new round."",""How much does it cost to observe each hidden value?"",""How many hidden values am I allowed to observe in each round?"",""Which statement is TRUE?"",""What does the feedback teach me?""]","[""3"",""True"",""$0.10"",""As many or as few as I wish"",""My earnings for each round are equal to the <i>sum</i> of the values of all locations I visit (minus the cost of making observations), and I will be paid the earnings from one of the 20 rounds."",""All of the above.""]",13120,743886,survey-multi-choice,A1KISJJJMHEFVP,3QUO65DNQUOBDLXABYYMOPM8O8WOU0,10
378,"[True, True, True, False, True, True]","[""How many flights are there per round?"",""True or false: The hidden values will change each time I start a new round."",""How much does it cost to observe each hidden value?"",""How many hidden values am I allowed to observe in each round?"",""Which statement is TRUE?"",""What does the feedback teach me?""]","[""3"",""True"",""$0.10"",""At most 15"",""My earnings for each round are equal to the <i>sum</i> of the values of all locations I visit (minus the cost of making observations), and I will be paid the earnings from one of the 20 rounds."",""All of the above.""]",56669,326432,survey-multi-choice,A1LB4EJUIYDMYJ,3C6FJU71TQTN7Z1CHL7KQGKA2IVYUL,11
380,"[False, True, True, True, True, False]","[""How many flights are there per round?"",""True or false: The hidden values will change each time I start a new round."",""How much does it cost to observe each hidden value?"",""How many hidden values am I allowed to observe in each round?"",""Which statement is TRUE?"",""What does the feedback teach me?""]","[""2"",""True"",""$0.10"",""As many or as few as I wish"",""My earnings for each round are equal to the <i>sum</i> of the values of all locations I visit (minus the cost of making observations), and I will be paid the earnings from one of the 20 rounds."",""Whether I chose the move that was best according to the information I had.""]",50170,430409,survey-multi-choice,A1LB4EJUIYDMYJ,3C6FJU71TQTN7Z1CHL7KQGKA2IVYUL,11
382,"[True, True, True, True, True, True]","[""How many flights are there per round?"",""True or false: The hidden values will change each time I start a new round."",""How much does it cost to observe each hidden value?"",""How many hidden values am I allowed to observe in each round?"",""Which statement is TRUE?"",""What does the feedback teach me?""]","[""3"",""True"",""$0.10"",""As many or as few as I wish"",""My earnings for each round are equal to the <i>sum</i> of the values of all locations I visit (minus the cost of making observations), and I will be paid the earnings from one of the 20 rounds."",""All of the above.""]",16156,519082,survey-multi-choice,A1LB4EJUIYDMYJ,3C6FJU71TQTN7Z1CHL7KQGKA2IVYUL,11
405,"[True, True, True, True, True, True]","[""How many flights are there per round?"",""True or false: The hidden values will change each time I start a new round."",""How much does it cost to observe each hidden value?"",""How many hidden values am I allowed to observe in each round?"",""Which statement is TRUE?"",""What does the feedback teach me?""]","[""3"",""True"",""$0.10"",""As many or as few as I wish"",""My earnings for each round are equal to the <i>sum</i> of the values of all locations I visit (minus the cost of making observations), and I will be paid the earnings from one of the 20 rounds."",""All of the above.""]",258856,352339,survey-multi-choice,A1N4AZ1QXPOPXH,3MMN5BL1WZ43EOZFJYN89C73GVXM3B,12
428,"[True, True, True, True, True, True]","[""How many flights are there per round?"",""True or false: The hidden values will change each time I start a new round."",""How much does it cost to observe each hidden value?"",""How many hidden values am I allowed to observe in each round?"",""Which statement is TRUE?"",""What does the feedback teach me?""]","[""3"",""True"",""$0.10"",""As many or as few as I wish"",""My earnings for each round are equal to the <i>sum</i> of the values of all locations I visit (minus the cost of making observations), and I will be paid the earnings from one of the 20 rounds."",""All of the above.""]",40576,163794,survey-multi-choice,A1NS16PLRPJ3YW,3DI28L7YXAE9SXTNFWL68BNX99T1EA,13
451,"[False, True, True, True, False, True]","[""How many flights are there per round?"",""True or false: The hidden values will change each time I start a new round."",""How much does it cost to observe each hidden value?"",""How many hidden values am I allowed to observe in each round?"",""Which statement is TRUE?"",""What does the feedback teach me?""]","[""2"",""True"",""$0.10"",""As many or as few as I wish"",""My earnings for each round are equal to the value of one of the locations I visit (minus the cost of making observations), and I will actually be paid the earnings from one of the 20 rounds."",""All of the above.""]",50754,135490,survey-multi-choice,A1YSYI926BBOHW,33M4IA01QG16R2JL8VQD2RQHTD0RX7,14
453,"[False, True, True, True, True, True]","[""How many flights are there per round?"",""True or false: The hidden values will change each time I start a new round."",""How much does it cost to observe each hidden value?"",""How many hidden values am I allowed to observe in each round?"",""Which statement is TRUE?"",""What does the feedback teach me?""]","[""2"",""True"",""$0.10"",""As many or as few as I wish"",""My earnings for each round are equal to the <i>sum</i> of the values of all locations I visit (minus the cost of making observations), and I will be paid the earnings from one of the 20 rounds."",""All of the above.""]",35643,237684,survey-multi-choice,A1YSYI926BBOHW,33M4IA01QG16R2JL8VQD2RQHTD0RX7,14
455,"[True, True, True, True, True, True]","[""How many flights are there per round?"",""True or false: The hidden values will change each time I start a new round."",""How much does it cost to observe each hidden value?"",""How many hidden values am I allowed to observe in each round?"",""Which statement is TRUE?"",""What does the feedback teach me?""]","[""3"",""True"",""$0.10"",""As many or as few as I wish"",""My earnings for each round are equal to the <i>sum</i> of the values of all locations I visit (minus the cost of making observations), and I will be paid the earnings from one of the 20 rounds."",""All of the above.""]",15566,276704,survey-multi-choice,A1YSYI926BBOHW,33M4IA01QG16R2JL8VQD2RQHTD0RX7,14
478,"[False, True, True, True, True]","[""How many flights are there per round?"",""True or false: The hidden values will change each time I start a new round."",""How much does it cost to observe each hidden value?"",""How many hidden values am I allowed to observe in each round?"",""Which statement is TRUE?""]","[""1"",""True"",""$0.10"",""As many or as few as I wish"",""My earnings for each round are equal to the <i>sum</i> of the values of all locations I visit (minus the cost of making observations), and I will be paid the earnings from one of the 20 rounds.""]",30660,136203,survey-multi-choice,A21SIPO89DP66I,3ND9UOO81K2GZ4JIT6XVEW3BEJ2LWF,15
480,"[False, True, True, True, False]","[""How many flights are there per round?"",""True or false: The hidden values will change each time I start a new round."",""How much does it cost to observe each hidden value?"",""How many hidden values am I allowed to observe in each round?"",""Which statement is TRUE?""]","[""1"",""True"",""$0.10"",""As many or as few as I wish"",""My earnings for each round are equal to the <i>sum</i> of the values of all locations I visit (minus the cost of making observations), but these earnings aren't real money.""]",24690,174017,survey-multi-choice,A21SIPO89DP66I,3ND9UOO81K2GZ4JIT6XVEW3BEJ2LWF,15
482,"[True, True, True, True, True]","[""How many flights are there per round?"",""True or false: The hidden values will change each time I start a new round."",""How much does it cost to observe each hidden value?"",""How many hidden values am I allowed to observe in each round?"",""Which statement is TRUE?""]","[""3"",""True"",""$0.10"",""As many or as few as I wish"",""My earnings for each round are equal to the <i>sum</i> of the values of all locations I visit (minus the cost of making observations), and I will be paid the earnings from one of the 20 rounds.""]",29031,250153,survey-multi-choice,A21SIPO89DP66I,3ND9UOO81K2GZ4JIT6XVEW3BEJ2LWF,15
505,"[False, True, True, True, False]","[""How many flights are there per round?"",""True or false: The hidden values will change each time I start a new round."",""How much does it cost to observe each hidden value?"",""How many hidden values am I allowed to observe in each round?"",""Which statement is TRUE?""]","[""1"",""True"",""$0.10"",""As many or as few as I wish"",""My earnings for each round are equal to the <i>sum</i> of the values of all locations I visit (minus the cost of making observations), but these earnings aren't real money.""]",43967,153013,survey-multi-choice,A29VV8U7XTHC3B,3QILPRALQ5VVX3QL7GX4D84E172N87,16
507,"[False, True, True, True, True]","[""How many flights are there per round?"",""True or false: The hidden values will change each time I start a new round."",""How much does it cost to observe each hidden value?"",""How many hidden values am I allowed to observe in each round?"",""Which statement is TRUE?""]","[""1"",""True"",""$0.10"",""As many or as few as I wish"",""My earnings for each round are equal to the <i>sum</i> of the values of all locations I visit (minus the cost of making observations), and I will be paid the earnings from one of the 20 rounds.""]",22294,211011,survey-multi-choice,A29VV8U7XTHC3B,3QILPRALQ5VVX3QL7GX4D84E172N87,16
509,"[True, True, True, True, True]","[""How many flights are there per round?"",""True or false: The hidden values will change each time I start a new round."",""How much does it cost to observe each hidden value?"",""How many hidden values am I allowed to observe in each round?"",""Which statement is TRUE?""]","[""3"",""True"",""$0.10"",""As many or as few as I wish"",""My earnings for each round are equal to the <i>sum</i> of the values of all locations I visit (minus the cost of making observations), and I will be paid the earnings from one of the 20 rounds.""]",29958,289519,survey-multi-choice,A29VV8U7XTHC3B,3QILPRALQ5VVX3QL7GX4D84E172N87,16
532,"[True, True, True, True, True]","[""How many flights are there per round?"",""True or false: The hidden values will change each time I start a new round."",""How much does it cost to observe each hidden value?"",""How many hidden values am I allowed to observe in each round?"",""Which statement is TRUE?""]","[""3"",""True"",""$0.10"",""As many or as few as I wish"",""My earnings for each round are equal to the <i>sum</i> of the values of all locations I visit (minus the cost of making observations), and I will be paid the earnings from one of the 20 rounds.""]",57231,222066,survey-multi-choice,A2DLH5XGBNYXWS,3AMYWKA6YBMQBA79FG0J8J8SLMJ6OL,17
555,"[True, True, True, True, True, True]","[""How many flights are there per round?"",""True or false: The hidden values will change each time I start a new round."",""How much does it cost to observe each hidden value?"",""How many hidden values am I allowed to observe in each round?"",""Which statement is TRUE?"",""What does the feedback teach me?""]","[""3"",""True"",""$0.10"",""As many or as few as I wish"",""My earnings for each round are equal to the <i>sum</i> of the values of all locations I visit (minus the cost of making observations), and I will be paid the earnings from one of the 20 rounds."",""All of the above.""]",59135,223140,survey-multi-choice,A2HC0BTHK6KL94,32XVDSJFPZXET63WFY93Q22BAHXM20,18
578,"[False, True, True, True, False, True]","[""How many flights are there per round?"",""True or false: The hidden values will change each time I start a new round."",""How much does it cost to observe each hidden value?"",""How many hidden values am I allowed to observe in each round?"",""Which statement is TRUE?"",""What does the feedback teach me?""]","[""1"",""True"",""$0.10"",""As many or as few as I wish"",""My earnings for each round are equal to the value of one of the locations I visit (minus the cost of making observations), and I will actually be paid the earnings from one of the 20 rounds."",""All of the above.""]",490289,966640,survey-multi-choice,A2K56J9POYUFCA,3QAPZX2QN4DHQSWPQTM5S5VY7E0209,19
580,"[False, True, True, True, True, True]","[""How many flights are there per round?"",""True or false: The hidden values will change each time I start a new round."",""How much does it cost to observe each hidden value?"",""How many hidden values am I allowed to observe in each round?"",""Which statement is TRUE?"",""What does the feedback teach me?""]","[""1"",""True"",""$0.10"",""As many or as few as I wish"",""My earnings for each round are equal to the <i>sum</i> of the values of all locations I visit (minus the cost of making observations), and I will be paid the earnings from one of the 20 rounds."",""All of the above.""]",140926,1352002,survey-multi-choice,A2K56J9POYUFCA,3QAPZX2QN4DHQSWPQTM5S5VY7E0209,19
582,"[True, True, True, True, True, True]","[""How many flights are there per round?"",""True or false: The hidden values will change each time I start a new round."",""How much does it cost to observe each hidden value?"",""How many hidden values am I allowed to observe in each round?"",""Which statement is TRUE?"",""What does the feedback teach me?""]","[""3"",""True"",""$0.10"",""As many or as few as I wish"",""My earnings for each round are equal to the <i>sum</i> of the values of all locations I visit (minus the cost of making observations), and I will be paid the earnings from one of the 20 rounds."",""All of the above.""]",131794,1491606,survey-multi-choice,A2K56J9POYUFCA,3QAPZX2QN4DHQSWPQTM5S5VY7E0209,19
605,"[False, True, True, True, True]","[""How many flights are there per round?"",""True or false: The hidden values will change each time I start a new round."",""How much does it cost to observe each hidden value?"",""How many hidden values am I allowed to observe in each round?"",""Which statement is TRUE?""]","[""4"",""True"",""$0.10"",""As many or as few as I wish"",""My earnings for each round are equal to the <i>sum</i> of the values of all locations I visit (minus the cost of making observations), and I will be paid the earnings from one of the 20 rounds.""]",50829,147992,survey-multi-choice,A2LZ9KG42SZ3I0,382M9COHEHFP1UKLHKVQJDSUK6RUE3,20
607,"[False, True, True, True, True]","[""How many flights are there per round?"",""True or false: The hidden values will change each time I start a new round."",""How much does it cost to observe each hidden value?"",""How many hidden values am I allowed to observe in each round?"",""Which statement is TRUE?""]","[""1"",""True"",""$0.10"",""As many or as few as I wish"",""My earnings for each round are equal to the <i>sum</i> of the values of all locations I visit (minus the cost of making observations), and I will be paid the earnings from one of the 20 rounds.""]",15132,213680,survey-multi-choice,A2LZ9KG42SZ3I0,382M9COHEHFP1UKLHKVQJDSUK6RUE3,20
609,"[False, True, True, True, True]","[""How many flights are there per round?"",""True or false: The hidden values will change each time I start a new round."",""How much does it cost to observe each hidden value?"",""How many hidden values am I allowed to observe in each round?"",""Which statement is TRUE?""]","[""1"",""True"",""$0.10"",""As many or as few as I wish"",""My earnings for each round are equal to the <i>sum</i> of the values of all locations I visit (minus the cost of making observations), and I will be paid the earnings from one of the 20 rounds.""]",29672,297096,survey-multi-choice,A2LZ9KG42SZ3I0,382M9COHEHFP1UKLHKVQJDSUK6RUE3,20
611,"[False, True, True, True, True]","[""How many flights are there per round?"",""True or false: The hidden values will change each time I start a new round."",""How much does it cost to observe each hidden value?"",""How many hidden values am I allowed to observe in each round?"",""Which statement is TRUE?""]","[""1"",""True"",""$0.10"",""As many or as few as I wish"",""My earnings for each round are equal to the <i>sum</i> of the values of all locations I visit (minus the cost of making observations), and I will be paid the earnings from one of the 20 rounds.""]",55782,433638,survey-multi-choice,A2LZ9KG42SZ3I0,382M9COHEHFP1UKLHKVQJDSUK6RUE3,20
613,"[False, True, True, True, False]","[""How many flights are there per round?"",""True or false: The hidden values will change each time I start a new round."",""How much does it cost to observe each hidden value?"",""How many hidden values am I allowed to observe in each round?"",""Which statement is TRUE?""]","[""1"",""True"",""$0.10"",""As many or as few as I wish"",""My earnings for each round are equal to the <i>sum</i> of the values of all locations I visit (minus the cost of making observations), but these earnings aren't real money.""]",24766,474470,survey-multi-choice,A2LZ9KG42SZ3I0,382M9COHEHFP1UKLHKVQJDSUK6RUE3,20
615,"[False, True, True, True, False]","[""How many flights are there per round?"",""True or false: The hidden values will change each time I start a new round."",""How much does it cost to observe each hidden value?"",""How many hidden values am I allowed to observe in each round?"",""Which statement is TRUE?""]","[""1"",""True"",""$0.10"",""As many or as few as I wish"",""My earnings for each round are equal to the value of one of the locations I visit (minus the cost of making observations), and I will actually be paid the earnings from one of the 20 rounds.""]",22031,504014,survey-multi-choice,A2LZ9KG42SZ3I0,382M9COHEHFP1UKLHKVQJDSUK6RUE3,20
617,"[False, True, True, True, False]","[""How many flights are there per round?"",""True or false: The hidden values will change each time I start a new round."",""How much does it cost to observe each hidden value?"",""How many hidden values am I allowed to observe in each round?"",""Which statement is TRUE?""]","[""1"",""True"",""$0.10"",""As many or as few as I wish"",""My earnings for each round are equal to the value of one of the locations I visit (minus the cost of making observations), and I will actually be paid the earnings from one of the 20 rounds.""]",33010,571214,survey-multi-choice,A2LZ9KG42SZ3I0,382M9COHEHFP1UKLHKVQJDSUK6RUE3,20
619,"[False, True, True, True, True]","[""How many flights are there per round?"",""True or false: The hidden values will change each time I start a new round."",""How much does it cost to observe each hidden value?"",""How many hidden values am I allowed to observe in each round?"",""Which statement is TRUE?""]","[""1"",""True"",""$0.10"",""As many or as few as I wish"",""My earnings for each round are equal to the <i>sum</i> of the values of all locations I visit (minus the cost of making observations), and I will be paid the earnings from one of the 20 rounds.""]",37138,642382,survey-multi-choice,A2LZ9KG42SZ3I0,382M9COHEHFP1UKLHKVQJDSUK6RUE3,20
621,"[True, True, True, True, True]","[""How many flights are there per round?"",""True or false: The hidden values will change each time I start a new round."",""How much does it cost to observe each hidden value?"",""How many hidden values am I allowed to observe in each round?"",""Which statement is TRUE?""]","[""3"",""True"",""$0.10"",""As many or as few as I wish"",""My earnings for each round are equal to the <i>sum</i> of the values of all locations I visit (minus the cost of making observations), and I will be paid the earnings from one of the 20 rounds.""]",30150,741807,survey-multi-choice,A2LZ9KG42SZ3I0,382M9COHEHFP1UKLHKVQJDSUK6RUE3,20
644,"[True, True, True, True, True, True]","[""How many flights are there per round?"",""True or false: The hidden values will change each time I start a new round."",""How much does it cost to observe each hidden value?"",""How many hidden values am I allowed to observe in each round?"",""Which statement is TRUE?"",""What does the feedback teach me?""]","[""3"",""True"",""$0.10"",""As many or as few as I wish"",""My earnings for each round are equal to the <i>sum</i> of the values of all locations I visit (minus the cost of making observations), and I will be paid the earnings from one of the 20 rounds."",""All of the above.""]",88649,279660,survey-multi-choice,A2MKXI4KCRRI7Y,3TMFV4NEP8ELKXZZZHOR9RH5UJ3W84,21
667,"[False, True, True, True, True]","[""How many flights are there per round?"",""True or false: The hidden values will change each time I start a new round."",""How much does it cost to observe each hidden value?"",""How many hidden values am I allowed to observe in each round?"",""Which statement is TRUE?""]","[""1"",""True"",""$0.10"",""As many or as few as I wish"",""My earnings for each round are equal to the <i>sum</i> of the values of all locations I visit (minus the cost of making observations), and I will be paid the earnings from one of the 20 rounds.""]",58196,206267,survey-multi-choice,A2PXJTMWGUE5DC,3S96KQ6I9M459BRWLKUW8ZO71GLDT4,22
669,"[True, True, True, True, True]","[""How many flights are there per round?"",""True or false: The hidden values will change each time I start a new round."",""How much does it cost to observe each hidden value?"",""How many hidden values am I allowed to observe in each round?"",""Which statement is TRUE?""]","[""3"",""True"",""$0.10"",""As many or as few as I wish"",""My earnings for each round are equal to the <i>sum</i> of the values of all locations I visit (minus the cost of making observations), and I will be paid the earnings from one of the 20 rounds.""]",47843,299760,survey-multi-choice,A2PXJTMWGUE5DC,3S96KQ6I9M459BRWLKUW8ZO71GLDT4,22
692,"[True, True, True, True, True, True]","[""How many flights are there per round?"",""True or false: The hidden values will change each time I start a new round."",""How much does it cost to observe each hidden value?"",""How many hidden values am I allowed to observe in each round?"",""Which statement is TRUE?"",""What does the feedback teach me?""]","[""3"",""True"",""$0.10"",""As many or as few as I wish"",""My earnings for each round are equal to the <i>sum</i> of the values of all locations I visit (minus the cost of making observations), and I will be paid the earnings from one of the 20 rounds."",""All of the above.""]",308225,968062,survey-multi-choice,A2SCX0RC7105XV,3SEPORI8WNZ3XGXJ72SC4MHI19BAZG,23
715,"[False, True, True, True, False, True]","[""How many flights are there per round?"",""True or false: The hidden values will change each time I start a new round."",""How much does it cost to observe each hidden value?"",""How many hidden values am I allowed to observe in each round?"",""Which statement is TRUE?"",""What does the feedback teach me?""]","[""1"",""True"",""$0.10"",""As many or as few as I wish"",""My earnings for each round are equal to the value of one of the locations I visit (minus the cost of making observations), and I will actually be paid the earnings from one of the 20 rounds."",""All of the above.""]",67420,220641,survey-multi-choice,A2WJGI7XNUBRND,3XIQGXAUMC8W9JZ6ZHS7XAZHS187XQ,24
717,"[False, True, True, True, True, False]","[""How many flights are there per round?"",""True or false: The hidden values will change each time I start a new round."",""How much does it cost to observe each hidden value?"",""How many hidden values am I allowed to observe in each round?"",""Which statement is TRUE?"",""What does the feedback teach me?""]","[""1"",""True"",""$0.10"",""As many or as few as I wish"",""My earnings for each round are equal to the <i>sum</i> of the values of all locations I visit (minus the cost of making observations), and I will be paid the earnings from one of the 20 rounds."",""The duration of the delay tells me how much more money I could have earned by planning and deciding better.""]",58556,365890,survey-multi-choice,A2WJGI7XNUBRND,3XIQGXAUMC8W9JZ6ZHS7XAZHS187XQ,24
719,"[True, True, True, True, True, False]","[""How many flights are there per round?"",""True or false: The hidden values will change each time I start a new round."",""How much does it cost to observe each hidden value?"",""How many hidden values am I allowed to observe in each round?"",""Which statement is TRUE?"",""What does the feedback teach me?""]","[""3"",""True"",""$0.10"",""As many or as few as I wish"",""My earnings for each round are equal to the <i>sum</i> of the values of all locations I visit (minus the cost of making observations), and I will be paid the earnings from one of the 20 rounds."",""The duration of the delay tells me how much more money I could have earned by planning and deciding better.""]",46066,473490,survey-multi-choice,A2WJGI7XNUBRND,3XIQGXAUMC8W9JZ6ZHS7XAZHS187XQ,24
721,"[False, True, True, True, True, False]","[""How many flights are there per round?"",""True or false: The hidden values will change each time I start a new round."",""How much does it cost to observe each hidden value?"",""How many hidden values am I allowed to observe in each round?"",""Which statement is TRUE?"",""What does the feedback teach me?""]","[""2"",""True"",""$0.10"",""As many or as few as I wish"",""My earnings for each round are equal to the <i>sum</i> of the values of all locations I visit (minus the cost of making observations), and I will be paid the earnings from one of the 20 rounds."",""The duration of the delay tells me how much more money I could have earned by planning and deciding better.""]",28467,525859,survey-multi-choice,A2WJGI7XNUBRND,3XIQGXAUMC8W9JZ6ZHS7XAZHS187XQ,24
723,"[True, True, True, True, True, True]","[""How many flights are there per round?"",""True or false: The hidden values will change each time I start a new round."",""How much does it cost to observe each hidden value?"",""How many hidden values am I allowed to observe in each round?"",""Which statement is TRUE?"",""What does the feedback teach me?""]","[""3"",""True"",""$0.10"",""As many or as few as I wish"",""My earnings for each round are equal to the <i>sum</i> of the values of all locations I visit (minus the cost of making observations), and I will be paid the earnings from one of the 20 rounds."",""All of the above.""]",53790,700620,survey-multi-choice,A2WJGI7XNUBRND,3XIQGXAUMC8W9JZ6ZHS7XAZHS187XQ,24
746,"[False, True, True, True, True]","[""How many flights are there per round?"",""True or false: The hidden values will change each time I start a new round."",""How much does it cost to observe each hidden value?"",""How many hidden values am I allowed to observe in each round?"",""Which statement is TRUE?""]","[""4"",""True"",""$0.10"",""As many or as few as I wish"",""My earnings for each round are equal to the <i>sum</i> of the values of all locations I visit (minus the cost of making observations), and I will be paid the earnings from one of the 20 rounds.""]",165012,906609,survey-multi-choice,A2ZDK0Y5466BXN,340UGXU9DY163567CAK0JHGGK1WVUC,25
748,"[False, True, True, True, True]","[""How many flights are there per round?"",""True or false: The hidden values will change each time I start a new round."",""How much does it cost to observe each hidden value?"",""How many hidden values am I allowed to observe in each round?"",""Which statement is TRUE?""]","[""1"",""True"",""$0.10"",""As many or as few as I wish"",""My earnings for each round are equal to the <i>sum</i> of the values of all locations I visit (minus the cost of making observations), and I will be paid the earnings from one of the 20 rounds.""]",47505,1022143,survey-multi-choice,A2ZDK0Y5466BXN,340UGXU9DY163567CAK0JHGGK1WVUC,25
750,"[True, True, True, True, True]","[""How many flights are there per round?"",""True or false: The hidden values will change each time I start a new round."",""How much does it cost to observe each hidden value?"",""How many hidden values am I allowed to observe in each round?"",""Which statement is TRUE?""]","[""3"",""True"",""$0.10"",""As many or as few as I wish"",""My earnings for each round are equal to the <i>sum</i> of the values of all locations I visit (minus the cost of making observations), and I will be paid the earnings from one of the 20 rounds.""]",23548,1101847,survey-multi-choice,A2ZDK0Y5466BXN,340UGXU9DY163567CAK0JHGGK1WVUC,25
773,"[True, True, True, True, True]","[""How many flights are there per round?"",""True or false: The hidden values will change each time I start a new round."",""How much does it cost to observe each hidden value?"",""How many hidden values am I allowed to observe in each round?"",""Which statement is TRUE?""]","[""3"",""True"",""$0.10"",""As many or as few as I wish"",""My earnings for each round are equal to the <i>sum</i> of the values of all locations I visit (minus the cost of making observations), and I will be paid the earnings from one of the 20 rounds.""]",59640,100960,survey-multi-choice,A32EZ77O9F6P1U,3U84XHCDICDOVRH2Y1ILRJVI9ZBZ4Q,26
796,"[False, True, True, True, False]","[""How many flights are there per round?"",""True or false: The hidden values will change each time I start a new round."",""How much does it cost to observe each hidden value?"",""How many hidden values am I allowed to observe in each round?"",""Which statement is TRUE?""]","[""1"",""True"",""$0.10"",""As many or as few as I wish"",""My earnings for each round are equal to the value of one of the locations I visit (minus the cost of making observations), and I will actually be paid the earnings from one of the 20 rounds.""]",53490,179041,survey-multi-choice,A33AZCOKCCTUXV,3GD6L00D3SX74LL0WU9PLJS6IBK1MZ,27
798,"[False, True, True, True, False]","[""How many flights are there per round?"",""True or false: The hidden values will change each time I start a new round."",""How much does it cost to observe each hidden value?"",""How many hidden values am I allowed to observe in each round?"",""Which statement is TRUE?""]","[""2"",""True"",""$0.10"",""As many or as few as I wish"",""My earnings for each round are equal to the value of one of the locations I visit (minus the cost of making observations), and I will actually be paid the earnings from one of the 20 rounds.""]",21480,221992,survey-multi-choice,A33AZCOKCCTUXV,3GD6L00D3SX74LL0WU9PLJS6IBK1MZ,27
800,"[True, True, True, True, False]","[""How many flights are there per round?"",""True or false: The hidden values will change each time I start a new round."",""How much does it cost to observe each hidden value?"",""How many hidden values am I allowed to observe in each round?"",""Which statement is TRUE?""]","[""3"",""True"",""$0.10"",""As many or as few as I wish"",""My earnings for each round are equal to the value of one of the locations I visit (minus the cost of making observations), and I will actually be paid the earnings from one of the 20 rounds.""]",18970,258445,survey-multi-choice,A33AZCOKCCTUXV,3GD6L00D3SX74LL0WU9PLJS6IBK1MZ,27
802,"[False, True, True, True, True]","[""How many flights are there per round?"",""True or false: The hidden values will change each time I start a new round."",""How much does it cost to observe each hidden value?"",""How many hidden values am I allowed to observe in each round?"",""Which statement is TRUE?""]","[""1"",""True"",""$0.10"",""As many or as few as I wish"",""My earnings for each round are equal to the <i>sum</i> of the values of all locations I visit (minus the cost of making observations), and I will be paid the earnings from one of the 20 rounds.""]",23505,287923,survey-multi-choice,A33AZCOKCCTUXV,3GD6L00D3SX74LL0WU9PLJS6IBK1MZ,27
804,"[False, True, True, True, False]","[""How many flights are there per round?"",""True or false: The hidden values will change each time I start a new round."",""How much does it cost to observe each hidden value?"",""How many hidden values am I allowed to observe in each round?"",""Which statement is TRUE?""]","[""4"",""True"",""$0.10"",""As many or as few as I wish"",""My earnings for each round are equal to the value of one of the locations I visit (minus the cost of making observations), and I will actually be paid the earnings from one of the 20 rounds.""]",103957,398743,survey-multi-choice,A33AZCOKCCTUXV,3GD6L00D3SX74LL0WU9PLJS6IBK1MZ,27
806,"[False, False, True, True, False]","[""How many flights are there per round?"",""True or false: The hidden values will change each time I start a new round."",""How much does it cost to observe each hidden value?"",""How many hidden values am I allowed to observe in each round?"",""Which statement is TRUE?""]","[""1"",""False"",""$0.10"",""As many or as few as I wish"",""My earnings for each round are equal to the value of one of the locations I visit (minus the cost of making observations), and I will actually be paid the earnings from one of the 20 rounds.""]",9042,413900,survey-multi-choice,A33AZCOKCCTUXV,3GD6L00D3SX74LL0WU9PLJS6IBK1MZ,27
808,"[True, True, True, True, False]","[""How many flights are there per round?"",""True or false: The hidden values will change each time I start a new round."",""How much does it cost to observe each hidden value?"",""How many hidden values am I allowed to observe in each round?"",""Which statement is TRUE?""]","[""3"",""True"",""$0.10"",""As many or as few as I wish"",""My earnings for each round are equal to the value of one of the locations I visit (minus the cost of making observations), and I will actually be paid the earnings from one of the 20 rounds.""]",52695,471692,survey-multi-choice,A33AZCOKCCTUXV,3GD6L00D3SX74LL0WU9PLJS6IBK1MZ,27
810,"[False, True, True, True, False]","[""How many flights are there per round?"",""True or false: The hidden values will change each time I start a new round."",""How much does it cost to observe each hidden value?"",""How many hidden values am I allowed to observe in each round?"",""Which statement is TRUE?""]","[""2"",""True"",""$0.10"",""As many or as few as I wish"",""My earnings for each round are equal to the value of one of the locations I visit (minus the cost of making observations), and I will actually be paid the earnings from one of the 20 rounds.""]",9018,486367,survey-multi-choice,A33AZCOKCCTUXV,3GD6L00D3SX74LL0WU9PLJS6IBK1MZ,27
812,"[False, True, True, True, False]","[""How many flights are there per round?"",""True or false: The hidden values will change each time I start a new round."",""How much does it cost to observe each hidden value?"",""How many hidden values am I allowed to observe in each round?"",""Which statement is TRUE?""]","[""1"",""True"",""$0.10"",""As many or as few as I wish"",""My earnings for each round are equal to the value of one of the locations I visit (minus the cost of making observations), but these earnings aren't real money.""]",9445,501355,survey-multi-choice,A33AZCOKCCTUXV,3GD6L00D3SX74LL0WU9PLJS6IBK1MZ,27
814,"[False, True, True, True, False]","[""How many flights are there per round?"",""True or false: The hidden values will change each time I start a new round."",""How much does it cost to observe each hidden value?"",""How many hidden values am I allowed to observe in each round?"",""Which statement is TRUE?""]","[""1"",""True"",""$0.10"",""As many or as few as I wish"",""My earnings for each round are equal to the value of one of the locations I visit (minus the cost of making observations), but these earnings aren't real money.""]",6501,513081,survey-multi-choice,A33AZCOKCCTUXV,3GD6L00D3SX74LL0WU9PLJS6IBK1MZ,27
816,"[False, True, True, True, False]","[""How many flights are there per round?"",""True or false: The hidden values will change each time I start a new round."",""How much does it cost to observe each hidden value?"",""How many hidden values am I allowed to observe in each round?"",""Which statement is TRUE?""]","[""1"",""True"",""$0.10"",""As many or as few as I wish"",""My earnings for each round are equal to the value of one of the locations I visit (minus the cost of making observations), and I will actually be paid the earnings from one of the 20 rounds.""]",5999,524707,survey-multi-choice,A33AZCOKCCTUXV,3GD6L00D3SX74LL0WU9PLJS6IBK1MZ,27
818,"[False, True, True, True, True]","[""How many flights are there per round?"",""True or false: The hidden values will change each time I start a new round."",""How much does it cost to observe each hidden value?"",""How many hidden values am I allowed to observe in each round?"",""Which statement is TRUE?""]","[""1"",""True"",""$0.10"",""As many or as few as I wish"",""My earnings for each round are equal to the <i>sum</i> of the values of all locations I visit (minus the cost of making observations), and I will be paid the earnings from one of the 20 rounds.""]",8085,537493,survey-multi-choice,A33AZCOKCCTUXV,3GD6L00D3SX74LL0WU9PLJS6IBK1MZ,27
820,"[False, True, True, True, False]","[""How many flights are there per round?"",""True or false: The hidden values will change each time I start a new round."",""How much does it cost to observe each hidden value?"",""How many hidden values am I allowed to observe in each round?"",""Which statement is TRUE?""]","[""1"",""True"",""$0.10"",""As many or as few as I wish"",""My earnings for each round are equal to the <i>sum</i> of the values of all locations I visit (minus the cost of making observations), but these earnings aren't real money.""]",6702,550030,survey-multi-choice,A33AZCOKCCTUXV,3GD6L00D3SX74LL0WU9PLJS6IBK1MZ,27
822,"[False, True, True, True, False]","[""How many flights are there per round?"",""True or false: The hidden values will change each time I start a new round."",""How much does it cost to observe each hidden value?"",""How many hidden values am I allowed to observe in each round?"",""Which statement is TRUE?""]","[""2"",""True"",""$0.10"",""As many or as few as I wish"",""My earnings for each round are equal to the value of one of the locations I visit (minus the cost of making observations), and I will actually be paid the earnings from one of the 20 rounds.""]",5410,561246,survey-multi-choice,A33AZCOKCCTUXV,3GD6L00D3SX74LL0WU9PLJS6IBK1MZ,27
824,"[False, True, True, True, False]","[""How many flights are there per round?"",""True or false: The hidden values will change each time I start a new round."",""How much does it cost to observe each hidden value?"",""How many hidden values am I allowed to observe in each round?"",""Which statement is TRUE?""]","[""2"",""True"",""$0.10"",""As many or as few as I wish"",""My earnings for each round are equal to the value of one of the locations I visit (minus the cost of making observations), but these earnings aren't real money.""]",5427,571690,survey-multi-choice,A33AZCOKCCTUXV,3GD6L00D3SX74LL0WU9PLJS6IBK1MZ,27
826,"[False, True, True, True, True]","[""How many flights are there per round?"",""True or false: The hidden values will change each time I start a new round."",""How much does it cost to observe each hidden value?"",""How many hidden values am I allowed to observe in each round?"",""Which statement is TRUE?""]","[""2"",""True"",""$0.10"",""As many or as few as I wish"",""My earnings for each round are equal to the <i>sum</i> of the values of all locations I visit (minus the cost of making observations), and I will be paid the earnings from one of the 20 rounds.""]",7847,584228,survey-multi-choice,A33AZCOKCCTUXV,3GD6L00D3SX74LL0WU9PLJS6IBK1MZ,27
828,"[False, True, True, True, True]","[""How many flights are there per round?"",""True or false: The hidden values will change each time I start a new round."",""How much does it cost to observe each hidden value?"",""How many hidden values am I allowed to observe in each round?"",""Which statement is TRUE?""]","[""2"",""True"",""$0.10"",""As many or as few as I wish"",""My earnings for each round are equal to the <i>sum</i> of the values of all locations I visit (minus the cost of making observations), and I will be paid the earnings from one of the 20 rounds.""]",7434,596504,survey-multi-choice,A33AZCOKCCTUXV,3GD6L00D3SX74LL0WU9PLJS6IBK1MZ,27
830,"[False, True, True, True, False]","[""How many flights are there per round?"",""True or false: The hidden values will change each time I start a new round."",""How much does it cost to observe each hidden value?"",""How many hidden values am I allowed to observe in each round?"",""Which statement is TRUE?""]","[""2"",""True"",""$0.10"",""As many or as few as I wish"",""My earnings for each round are equal to the <i>sum</i> of the values of all locations I visit (minus the cost of making observations), but these earnings aren't real money.""]",7064,608615,survey-multi-choice,A33AZCOKCCTUXV,3GD6L00D3SX74LL0WU9PLJS6IBK1MZ,27
832,"[True, True, True, True, False]","[""How many flights are there per round?"",""True or false: The hidden values will change each time I start a new round."",""How much does it cost to observe each hidden value?"",""How many hidden values am I allowed to observe in each round?"",""Which statement is TRUE?""]","[""3"",""True"",""$0.10"",""As many or as few as I wish"",""My earnings for each round are equal to the value of one of the locations I visit (minus the cost of making observations), and I will actually be paid the earnings from one of the 20 rounds.""]",8010,621255,survey-multi-choice,A33AZCOKCCTUXV,3GD6L00D3SX74LL0WU9PLJS6IBK1MZ,27
834,"[True, True, True, True, False]","[""How many flights are there per round?"",""True or false: The hidden values will change each time I start a new round."",""How much does it cost to observe each hidden value?"",""How many hidden values am I allowed to observe in each round?"",""Which statement is TRUE?""]","[""3"",""True"",""$0.10"",""As many or as few as I wish"",""My earnings for each round are equal to the value of one of the locations I visit (minus the cost of making observations), but these earnings aren't real money.""]",9857,636303,survey-multi-choice,A33AZCOKCCTUXV,3GD6L00D3SX74LL0WU9PLJS6IBK1MZ,27
836,"[True, True, True, True, True]","[""How many flights are there per round?"",""True or false: The hidden values will change each time I start a new round."",""How much does it cost to observe each hidden value?"",""How many hidden values am I allowed to observe in each round?"",""Which statement is TRUE?""]","[""3"",""True"",""$0.10"",""As many or as few as I wish"",""My earnings for each round are equal to the <i>sum</i> of the values of all locations I visit (minus the cost of making observations), and I will be paid the earnings from one of the 20 rounds.""]",5695,645919,survey-multi-choice,A33AZCOKCCTUXV,3GD6L00D3SX74LL0WU9PLJS6IBK1MZ,27
859,"[False, True, True, True, False]","[""How many flights are there per round?"",""True or false: The hidden values will change each time I start a new round."",""How much does it cost to observe each hidden value?"",""How many hidden values am I allowed to observe in each round?"",""Which statement is TRUE?""]","[""4"",""True"",""$0.10"",""As many or as few as I wish"",""My earnings for each round are equal to the <i>sum</i> of the values of all locations I visit (minus the cost of making observations), but these earnings aren't real money.""]",55230,124566,survey-multi-choice,A33CFLCMJNHHNC,3MD9PLUKKIEAHZR8G6XHQS1I0GANZD,28
861,"[False, True, True, True, True]","[""How many flights are there per round?"",""True or false: The hidden values will change each time I start a new round."",""How much does it cost to observe each hidden value?"",""How many hidden values am I allowed to observe in each round?"",""Which statement is TRUE?""]","[""1"",""True"",""$0.10"",""As many or as few as I wish"",""My earnings for each round are equal to the <i>sum</i> of the values of all locations I visit (minus the cost of making observations), and I will be paid the earnings from one of the 20 rounds.""]",11741,172517,survey-multi-choice,A33CFLCMJNHHNC,3MD9PLUKKIEAHZR8G6XHQS1I0GANZD,28
863,"[False, True, True, True, True]","[""How many flights are there per round?"",""True or false: The hidden values will change each time I start a new round."",""How much does it cost to observe each hidden value?"",""How many hidden values am I allowed to observe in each round?"",""Which statement is TRUE?""]","[""1"",""True"",""$0.10"",""As many or as few as I wish"",""My earnings for each round are equal to the <i>sum</i> of the values of all locations I visit (minus the cost of making observations), and I will be paid the earnings from one of the 20 rounds.""]",28169,207010,survey-multi-choice,A33CFLCMJNHHNC,3MD9PLUKKIEAHZR8G6XHQS1I0GANZD,28
865,"[False, True, True, True, True]","[""How many flights are there per round?"",""True or false: The hidden values will change each time I start a new round."",""How much does it cost to observe each hidden value?"",""How many hidden values am I allowed to observe in each round?"",""Which statement is TRUE?""]","[""1"",""True"",""$0.10"",""As many or as few as I wish"",""My earnings for each round are equal to the <i>sum</i> of the values of all locations I visit (minus the cost of making observations), and I will be paid the earnings from one of the 20 rounds.""]",10750,262787,survey-multi-choice,A33CFLCMJNHHNC,3MD9PLUKKIEAHZR8G6XHQS1I0GANZD,28
867,"[False, True, True, True, False]","[""How many flights are there per round?"",""True or false: The hidden values will change each time I start a new round."",""How much does it cost to observe each hidden value?"",""How many hidden values am I allowed to observe in each round?"",""Which statement is TRUE?""]","[""1"",""True"",""$0.10"",""As many or as few as I wish"",""My earnings for each round are equal to the value of one of the locations I visit (minus the cost of making observations), and I will actually be paid the earnings from one of the 20 rounds.""]",9017,328458,survey-multi-choice,A33CFLCMJNHHNC,3MD9PLUKKIEAHZR8G6XHQS1I0GANZD,28
869,"[False, True, True, True, True]","[""How many flights are there per round?"",""True or false: The hidden values will change each time I start a new round."",""How much does it cost to observe each hidden value?"",""How many hidden values am I allowed to observe in each round?"",""Which statement is TRUE?""]","[""4"",""True"",""$0.10"",""As many or as few as I wish"",""My earnings for each round are equal to the <i>sum</i> of the values of all locations I visit (minus the cost of making observations), and I will be paid the earnings from one of the 20 rounds.""]",10397,352516,survey-multi-choice,A33CFLCMJNHHNC,3MD9PLUKKIEAHZR8G6XHQS1I0GANZD,28
871,"[False, True, True, True, False]","[""How many flights are there per round?"",""True or false: The hidden values will change each time I start a new round."",""How much does it cost to observe each hidden value?"",""How many hidden values am I allowed to observe in each round?"",""Which statement is TRUE?""]","[""4"",""True"",""$0.10"",""As many or as few as I wish"",""My earnings for each round are equal to the value of one of the locations I visit (minus the cost of making observations), and I will actually be paid the earnings from one of the 20 rounds.""]",12099,370876,survey-multi-choice,A33CFLCMJNHHNC,3MD9PLUKKIEAHZR8G6XHQS1I0GANZD,28
873,"[True, True, True, True, True]","[""How many flights are there per round?"",""True or false: The hidden values will change each time I start a new round."",""How much does it cost to observe each hidden value?"",""How many hidden values am I allowed to observe in each round?"",""Which statement is TRUE?""]","[""3"",""True"",""$0.10"",""As many or as few as I wish"",""My earnings for each round are equal to the <i>sum</i> of the values of all locations I visit (minus the cost of making observations), and I will be paid the earnings from one of the 20 rounds.""]",18478,432303,survey-multi-choice,A33CFLCMJNHHNC,3MD9PLUKKIEAHZR8G6XHQS1I0GANZD,28
896,"[False, True, True, True, True]","[""How many flights are there per round?"",""True or false: The hidden values will change each time I start a new round."",""How much does it cost to observe each hidden value?"",""How many hidden values am I allowed to observe in each round?"",""Which statement is TRUE?""]","[""1"",""True"",""$0.10"",""As many or as few as I wish"",""My earnings for each round are equal to the <i>sum</i> of the values of all locations I visit (minus the cost of making observations), and I will be paid the earnings from one of the 20 rounds.""]",27520,73149,survey-multi-choice,A345ITROB8ZNCQ,3GD6L00D3SX74LL0WU9PLJS6IBJM1J,29
898,"[False, True, True, True, True]","[""How many flights are there per round?"",""True or false: The hidden values will change each time I start a new round."",""How much does it cost to observe each hidden value?"",""How many hidden values am I allowed to observe in each round?"",""Which statement is TRUE?""]","[""4"",""True"",""$0.10"",""As many or as few as I wish"",""My earnings for each round are equal to the <i>sum</i> of the values of all locations I visit (minus the cost of making observations), and I will be paid the earnings from one of the 20 rounds.""]",10587,103039,survey-multi-choice,A345ITROB8ZNCQ,3GD6L00D3SX74LL0WU9PLJS6IBJM1J,29
900,"[True, True, True, True, True]","[""How many flights are there per round?"",""True or false: The hidden values will change each time I start a new round."",""How much does it cost to observe each hidden value?"",""How many hidden values am I allowed to observe in each round?"",""Which statement is TRUE?""]","[""3"",""True"",""$0.10"",""As many or as few as I wish"",""My earnings for each round are equal to the <i>sum</i> of the values of all locations I visit (minus the cost of making observations), and I will be paid the earnings from one of the 20 rounds.""]",7468,144292,survey-multi-choice,A345ITROB8ZNCQ,3GD6L00D3SX74LL0WU9PLJS6IBJM1J,29
923,"[False, True, True, True, True, False]","[""How many flights are there per round?"",""True or false: The hidden values will change each time I start a new round."",""How much does it cost to observe each hidden value?"",""How many hidden values am I allowed to observe in each round?"",""Which statement is TRUE?"",""What does the feedback teach me?""]","[""1"",""True"",""$0.10"",""As many or as few as I wish"",""My earnings for each round are equal to the <i>sum</i> of the values of all locations I visit (minus the cost of making observations), and I will be paid the earnings from one of the 20 rounds."",""The duration of the delay tells me how much more money I could have earned by planning and deciding better.""]",79340,364183,survey-multi-choice,A34NZ3C31CCJC,3JZQSN0I3QAY2QJMSQQFXGC3NZQGF6,30
