A1ISXRQO8ZQKPE:369J354OFDA2JXQBRXNB3AZRXUOG6X,0,1495051529311,"{""rt"": 172530, ""trial_type"": ""instructions"", ""view_history"": ""[{\""page_index\"":0,\""viewing_time\"":61526},{\""page_index\"":1,\""viewing_time\"":50933},{\""page_index\"":2,\""viewing_time\"":20631},{\""page_index\"":3,\""viewing_time\"":39439}]"", ""internal_node_id"": ""0.0-0.0-0.0"", ""time_elapsed"": 172530, ""trial_index"": 0}"
A1ISXRQO8ZQKPE:369J354OFDA2JXQBRXNB3AZRXUOG6X,1,1495051567069,"{""rt"": 29673, ""trial_type"": ""survey-multi-choice"", ""responses"": ""[\""1\"",\""True\"",\""$2.80\"",\""As many or as few as I wish\"",\""5% of my best score on any round\"",\""All of the above.\""]"", ""internal_node_id"": ""0.0-0.0-1.0"", ""time_elapsed"": 210288, ""questions"": ""[\""How many flights are there per round?\"",\""True or false: The hidden values will change each time I start a new round.\"",\""How much does it cost to observe each hidden value?\"",\""How many hidden values am I allowed to observe in each round?\"",\""How is your bonus determined?\"",\""What does the feedback teach you?\""]"", ""correct"": [false, true, true, true, false, true], ""trial_index"": 1}"
A1ISXRQO8ZQKPE:369J354OFDA2JXQBRXNB3AZRXUOG6X,2,1495051622619,"{""rt"": 54548, ""trial_type"": ""instructions"", ""view_history"": ""[{\""page_index\"":0,\""viewing_time\"":17948},{\""page_index\"":1,\""viewing_time\"":21063},{\""page_index\"":2,\""viewing_time\"":12633},{\""page_index\"":3,\""viewing_time\"":2904}]"", ""internal_node_id"": ""0.0-0.1-0.1"", ""time_elapsed"": 265839, ""trial_index"": 2}"
A1ISXRQO8ZQKPE:369J354OFDA2JXQBRXNB3AZRXUOG6X,3,1495051654578,"{""rt"": 13681, ""trial_type"": ""survey-multi-choice"", ""responses"": ""[\""1\"",\""True\"",\""$2.80\"",\""As many or as few as I wish\"",\""5% of my best score on any round\"",\""All of the above.\""]"", ""internal_node_id"": ""0.0-0.1-1.1"", ""time_elapsed"": 297798, ""questions"": ""[\""How many flights are there per round?\"",\""True or false: The hidden values will change each time I start a new round.\"",\""How much does it cost to observe each hidden value?\"",\""How many hidden values am I allowed to observe in each round?\"",\""How is your bonus determined?\"",\""What does the feedback teach you?\""]"", ""correct"": [false, true, true, true, false, true], ""trial_index"": 3}"
A1ISXRQO8ZQKPE:369J354OFDA2JXQBRXNB3AZRXUOG6X,4,1495051662505,"{""rt"": 6926, ""trial_type"": ""instructions"", ""view_history"": ""[{\""page_index\"":0,\""viewing_time\"":2374},{\""page_index\"":1,\""viewing_time\"":1216},{\""page_index\"":2,\""viewing_time\"":2112},{\""page_index\"":3,\""viewing_time\"":1224}]"", ""internal_node_id"": ""0.0-0.2-0.2"", ""time_elapsed"": 305725, ""trial_index"": 4}"
A1ISXRQO8ZQKPE:369J354OFDA2JXQBRXNB3AZRXUOG6X,5,1495051716904,"{""rt"": 12264, ""trial_type"": ""survey-multi-choice"", ""responses"": ""[\""1\"",\""True\"",\""$2.80\"",\""As many or as few as I wish\"",\""5% of my score on a random round\"",\""All of the above.\""]"", ""internal_node_id"": ""0.0-0.2-1.2"", ""time_elapsed"": 360124, ""questions"": ""[\""How many flights are there per round?\"",\""True or false: The hidden values will change each time I start a new round.\"",\""How much does it cost to observe each hidden value?\"",\""How many hidden values am I allowed to observe in each round?\"",\""How is your bonus determined?\"",\""What does the feedback teach you?\""]"", ""correct"": [false, true, true, true, true, true], ""trial_index"": 5}"
A1ISXRQO8ZQKPE:369J354OFDA2JXQBRXNB3AZRXUOG6X,6,1495051833323,"{""rt"": 115417, ""trial_type"": ""instructions"", ""view_history"": ""[{\""page_index\"":0,\""viewing_time\"":21124},{\""page_index\"":1,\""viewing_time\"":22240},{\""page_index\"":2,\""viewing_time\"":57781},{\""page_index\"":3,\""viewing_time\"":14272}]"", ""internal_node_id"": ""0.0-0.3-0.3"", ""time_elapsed"": 476543, ""trial_index"": 6}"
A1ISXRQO8ZQKPE:369J354OFDA2JXQBRXNB3AZRXUOG6X,7,1495051857106,"{""rt"": 20455, ""trial_type"": ""survey-multi-choice"", ""responses"": ""[\""1\"",\""True\"",\""$2.80\"",\""As many or as few as I wish\"",\""5% of my score on a random round\"",\""Whether I chose the move that was best according to the information I had.\""]"", ""internal_node_id"": ""0.0-0.3-1.3"", ""time_elapsed"": 500326, ""questions"": ""[\""How many flights are there per round?\"",\""True or false: The hidden values will change each time I start a new round.\"",\""How much does it cost to observe each hidden value?\"",\""How many hidden values am I allowed to observe in each round?\"",\""How is your bonus determined?\"",\""What does the feedback teach you?\""]"", ""correct"": [false, true, true, true, true, false], ""trial_index"": 7}"
A1ISXRQO8ZQKPE:369J354OFDA2JXQBRXNB3AZRXUOG6X,8,1495051865225,"{""rt"": 7119, ""trial_type"": ""instructions"", ""view_history"": ""[{\""page_index\"":0,\""viewing_time\"":2799},{\""page_index\"":1,\""viewing_time\"":1288},{\""page_index\"":2,\""viewing_time\"":1984},{\""page_index\"":3,\""viewing_time\"":1047}]"", ""internal_node_id"": ""0.0-0.4-0.4"", ""time_elapsed"": 508445, ""trial_index"": 8}"
A1ISXRQO8ZQKPE:369J354OFDA2JXQBRXNB3AZRXUOG6X,9,1495051888792,"{""rt"": 20728, ""trial_type"": ""survey-multi-choice"", ""responses"": ""[\""1\"",\""True\"",\""$2.80\"",\""As many or as few as I wish\"",\""5% of my score on a random round\"",\""The length of the day is based on how much more money I could have earned by planning and deciding better.\""]"", ""internal_node_id"": ""0.0-0.4-1.4"", ""time_elapsed"": 532012, ""questions"": ""[\""How many flights are there per round?\"",\""True or false: The hidden values will change each time I start a new round.\"",\""How much does it cost to observe each hidden value?\"",\""How many hidden values am I allowed to observe in each round?\"",\""How is your bonus determined?\"",\""What does the feedback teach you?\""]"", ""correct"": [false, true, true, true, true, false], ""trial_index"": 9}"
A1ISXRQO8ZQKPE:369J354OFDA2JXQBRXNB3AZRXUOG6X,10,1495051919272,"{""rt"": 29478, ""trial_type"": ""instructions"", ""view_history"": ""[{\""page_index\"":0,\""viewing_time\"":23925},{\""page_index\"":1,\""viewing_time\"":1248},{\""page_index\"":2,\""viewing_time\"":3088},{\""page_index\"":3,\""viewing_time\"":1215}]"", ""internal_node_id"": ""0.0-0.5-0.5"", ""time_elapsed"": 562492, ""trial_index"": 10}"
A1ISXRQO8ZQKPE:369J354OFDA2JXQBRXNB3AZRXUOG6X,11,1495051939295,"{""rt"": 10903, ""trial_type"": ""survey-multi-choice"", ""responses"": ""[\""4\"",\""True\"",\""$2.80\"",\""As many or as few as I wish\"",\""5% of my score on a random round\"",\""All of the above.\""]"", ""internal_node_id"": ""0.0-0.5-1.5"", ""time_elapsed"": 582514, ""questions"": ""[\""How many flights are there per round?\"",\""True or false: The hidden values will change each time I start a new round.\"",\""How much does it cost to observe each hidden value?\"",\""How many hidden values am I allowed to observe in each round?\"",\""How is your bonus determined?\"",\""What does the feedback teach you?\""]"", ""correct"": [false, true, true, true, true, true], ""trial_index"": 11}"
A1ISXRQO8ZQKPE:369J354OFDA2JXQBRXNB3AZRXUOG6X,12,1495051953646,"{""rt"": 13351, ""trial_type"": ""instructions"", ""view_history"": ""[{\""page_index\"":0,\""viewing_time\"":8686},{\""page_index\"":1,\""viewing_time\"":1144},{\""page_index\"":2,\""viewing_time\"":2192},{\""page_index\"":3,\""viewing_time\"":1329}]"", ""internal_node_id"": ""0.0-0.6-0.6"", ""time_elapsed"": 596866, ""trial_index"": 12}"
A1ISXRQO8ZQKPE:369J354OFDA2JXQBRXNB3AZRXUOG6X,13,1495051965414,"{""rt"": 10744, ""trial_type"": ""survey-multi-choice"", ""responses"": ""[\""3\"",\""True\"",\""$2.80\"",\""As many or as few as I wish\"",\""5% of my score on a random round\"",\""All of the above.\""]"", ""internal_node_id"": ""0.0-0.6-1.6"", ""time_elapsed"": 608633, ""questions"": ""[\""How many flights are there per round?\"",\""True or false: The hidden values will change each time I start a new round.\"",\""How much does it cost to observe each hidden value?\"",\""How many hidden values am I allowed to observe in each round?\"",\""How is your bonus determined?\"",\""What does the feedback teach you?\""]"", ""correct"": [true, true, true, true, true, true], ""trial_index"": 13}"
A1ISXRQO8ZQKPE:369J354OFDA2JXQBRXNB3AZRXUOG6X,14,1495052017209,"{""rt"": [8562, 8494, 17769], ""trial_type"": ""graph"", ""infoCost"": 2.8, ""feedback"": true, ""minTime"": 45, ""delays"": [-42, -6, 1], ""actionTimes"": [8563, 18146, 37017], ""time_elapsed"": 660429, ""actions"": [""right"", ""right"", ""down""], ""trialIndex"": 1, ""score"": 2, ""trial_index"": 14, ""internal_node_id"": ""0.0-1.0-0.0"", ""clickTimes"": [], ""path"": [1, 2, 6, 11], ""trialID"": 1, ""clicks"": [], ""condition"": 7}"
A1ISXRQO8ZQKPE:369J354OFDA2JXQBRXNB3AZRXUOG6X,15,1495052068728,"{""rt"": [6064, 4627, 1042], ""trial_type"": ""graph"", ""infoCost"": 2.8, ""feedback"": true, ""minTime"": 45, ""delays"": [-42, -6, 1], ""actionTimes"": [6065, 11785, 14136], ""time_elapsed"": 711948, ""actions"": [""up"", ""up"", ""right""], ""trialIndex"": 2, ""score"": 31, ""trial_index"": 15, ""internal_node_id"": ""0.0-1.0-1.0"", ""clickTimes"": [], ""path"": [1, 3, 7, 13], ""trialID"": 6, ""clicks"": [], ""condition"": 7}"
A1ISXRQO8ZQKPE:369J354OFDA2JXQBRXNB3AZRXUOG6X,16,1495052125728,"{""rt"": [10348, 1922, 9192], ""trial_type"": ""graph"", ""infoCost"": 2.8, ""feedback"": true, ""minTime"": 45, ""delays"": [-40, -6, 6], ""actionTimes"": [10348, 13517, 23812], ""time_elapsed"": 768948, ""actions"": [""down"", ""down"", ""left""], ""trialIndex"": 3, ""score"": -10.8, ""trial_index"": 16, ""internal_node_id"": ""0.0-1.0-2.0"", ""clickTimes"": [1402, 3960, 5160, 6199, 16847, 17991], ""path"": [1, 5, 9, 16], ""trialID"": 3, ""clicks"": [""4"", ""3"", ""2"", ""5"", ""17"", ""16""], ""condition"": 7}"
A1ISXRQO8ZQKPE:369J354OFDA2JXQBRXNB3AZRXUOG6X,17,1495052175348,"{""rt"": [20697, 309, 2830], ""trial_type"": ""graph"", ""infoCost"": 2.8, ""feedback"": true, ""minTime"": 45, ""delays"": [-25, -6, 0], ""actionTimes"": [20698, 22111, 26119], ""time_elapsed"": 818568, ""actions"": [""right"", ""right"", ""up""], ""trialIndex"": 4, ""score"": 11.6, ""trial_index"": 17, ""internal_node_id"": ""0.0-1.0-3.0"", ""clickTimes"": [2611, 5843, 8603, 13234, 14082, 15003, 16666, 18218], ""path"": [1, 2, 6, 10], ""trialID"": 2, ""clicks"": [""15"", ""14"", ""12"", ""13"", ""10"", ""11"", ""17"", ""16""], ""condition"": 7}"
A1ISXRQO8ZQKPE:369J354OFDA2JXQBRXNB3AZRXUOG6X,18,1495052224706,"{""rt"": [19926, 416, 678], ""trial_type"": ""graph"", ""infoCost"": 2.8, ""feedback"": true, ""minTime"": 45, ""delays"": [-28, -6, 0], ""actionTimes"": [19926, 21454, 23366], ""time_elapsed"": 867926, ""actions"": [""left"", ""left"", ""up""], ""trialIndex"": 5, ""score"": 11.6, ""trial_index"": 18, ""internal_node_id"": ""0.0-1.0-4.0"", ""clickTimes"": [1960, 5473, 8801, 10185, 11464, 12448, 13368, 16040], ""path"": [1, 4, 8, 14], ""trialID"": 5, ""clicks"": [""16"", ""14"", ""13"", ""12"", ""10"", ""11"", ""17"", ""15""], ""condition"": 7}"
A1ISXRQO8ZQKPE:369J354OFDA2JXQBRXNB3AZRXUOG6X,19,1495052292407,"{""rt"": [7859, 553, 1044], ""trial_type"": ""graph"", ""infoCost"": 2.8, ""feedback"": true, ""minTime"": 45, ""delays"": [-58, -6, 1], ""actionTimes"": [7860, 9917, 12100], ""time_elapsed"": 935627, ""actions"": [""down"", ""down"", ""right""], ""trialIndex"": 6, ""score"": 36.4, ""trial_index"": 19, ""internal_node_id"": ""0.0-1.0-5.0"", ""clickTimes"": [1456, 3159], ""path"": [1, 5, 9, 17], ""trialID"": 4, ""clicks"": [""14"", ""17""], ""condition"": 7}"
A1ISXRQO8ZQKPE:369J354OFDA2JXQBRXNB3AZRXUOG6X,20,1495052343422,"{""rt"": [15356, 2, 343], ""trial_type"": ""graph"", ""infoCost"": 2.8, ""feedback"": true, ""minTime"": 45, ""delays"": [-41, -6, -5], ""actionTimes"": [15356, 17010, 18555], ""time_elapsed"": 986641, ""actions"": [""left"", ""left"", ""up""], ""trialIndex"": 7, ""score"": 26, ""trial_index"": 20, ""internal_node_id"": ""0.0-1.0-6.0"", ""clickTimes"": [4879, 6423, 7639, 12014, 13614], ""path"": [1, 4, 8, 14], ""trialID"": 0, ""clicks"": [""10"", ""16"", ""14"", ""12"", ""4""], ""condition"": 7}"
A1ISXRQO8ZQKPE:369J354OFDA2JXQBRXNB3AZRXUOG6X,21,1495052395245,"{""rt"": [12393, 2, 295], ""trial_type"": ""graph"", ""infoCost"": 2.8, ""feedback"": true, ""minTime"": 45, ""delays"": [-38, -6, -5], ""actionTimes"": [12393, 13958, 15384], ""time_elapsed"": 1038465, ""actions"": [""left"", ""left"", ""up""], ""trialIndex"": 8, ""score"": 6.8, ""trial_index"": 21, ""internal_node_id"": ""0.0-1.0-7.0"", ""clickTimes"": [1876, 3292, 5004, 6595], ""path"": [1, 4, 8, 14], ""trialID"": 7, ""clicks"": [""16"", ""12"", ""10"", ""14""], ""condition"": 7}"
A1ISXRQO8ZQKPE:369J354OFDA2JXQBRXNB3AZRXUOG6X,22,1495052402071,"{""rt"": 5813, ""trial_type"": ""button-response"", ""button_pressed"": 0, ""stimulus"": ""<h1 id=\""thiscompletesthehit\"">This completes the HIT</h1>\n\n<p>One or your trials has been randomly selected and we will pay you 5% of your profit on that trial as a bonus. You will be awarded a bonus of $1.82</p>"", ""internal_node_id"": ""0.0-2.0"", ""time_elapsed"": 1045291, ""trial_index"": 22}"
A1OBB3PWYWK9KK:3KRVW3HTZNL7Y5KU9DO9HKFGB5YMSY,0,1495051395426,"{""rt"": 50983, ""trial_type"": ""instructions"", ""view_history"": ""[{\""page_index\"":0,\""viewing_time\"":27612},{\""page_index\"":1,\""viewing_time\"":13794},{\""page_index\"":2,\""viewing_time\"":9577}]"", ""internal_node_id"": ""0.0-0.0-0.0"", ""time_elapsed"": 50984, ""trial_index"": 0}"
A1OBB3PWYWK9KK:3KRVW3HTZNL7Y5KU9DO9HKFGB5YMSY,1,1495051416465,"{""rt"": 18215, ""trial_type"": ""survey-multi-choice"", ""responses"": ""[\""1\"",\""True\"",\""$1.60\"",\""As many or as few as I wish\"",\""5% of my score on a random round\""]"", ""internal_node_id"": ""0.0-0.0-1.0"", ""time_elapsed"": 72023, ""questions"": ""[\""How many flights are there per round?\"",\""True or false: The hidden values will change each time I start a new round.\"",\""How much does it cost to observe each hidden value?\"",\""How many hidden values am I allowed to observe in each round?\"",\""How is your bonus determined?\""]"", ""correct"": [false, true, true, true, true], ""trial_index"": 1}"
A1OBB3PWYWK9KK:3KRVW3HTZNL7Y5KU9DO9HKFGB5YMSY,2,1495051464501,"{""rt"": 47028, ""trial_type"": ""instructions"", ""view_history"": ""[{\""page_index\"":0,\""viewing_time\"":9535},{\""page_index\"":1,\""viewing_time\"":9242},{\""page_index\"":2,\""viewing_time\"":4592},{\""page_index\"":1,\""viewing_time\"":742},{\""page_index\"":0,\""viewing_time\"":21099},{\""page_index\"":1,\""viewing_time\"":1019},{\""page_index\"":2,\""viewing_time\"":799}]"", ""internal_node_id"": ""0.0-0.1-0.1"", ""time_elapsed"": 120059, ""trial_index"": 2}"
A1OBB3PWYWK9KK:3KRVW3HTZNL7Y5KU9DO9HKFGB5YMSY,3,1495051478080,"{""rt"": 12563, ""trial_type"": ""survey-multi-choice"", ""responses"": ""[\""3\"",\""True\"",\""$1.60\"",\""As many or as few as I wish\"",\""5% of my score on a random round\""]"", ""internal_node_id"": ""0.0-0.1-1.1"", ""time_elapsed"": 133638, ""questions"": ""[\""How many flights are there per round?\"",\""True or false: The hidden values will change each time I start a new round.\"",\""How much does it cost to observe each hidden value?\"",\""How many hidden values am I allowed to observe in each round?\"",\""How is your bonus determined?\""]"", ""correct"": [true, true, true, true, true], ""trial_index"": 3}"
A1OBB3PWYWK9KK:3KRVW3HTZNL7Y5KU9DO9HKFGB5YMSY,4,1495051537960,"{""rt"": [5526, 6438, 5152], ""trial_type"": ""graph"", ""infoCost"": 1.6, ""feedback"": true, ""minTime"": 45, ""delays"": [8, 0, 1], ""actionTimes"": [5526, 20912, 27032], ""time_elapsed"": 193518, ""actions"": [""right"", ""right"", ""up""], ""trialIndex"": 1, ""score"": 34, ""trial_index"": 4, ""internal_node_id"": ""0.0-1.0-0.0"", ""clickTimes"": [], ""path"": [1, 2, 6, 10], ""trialID"": 2, ""clicks"": [], ""condition"": 3}"
A1OBB3PWYWK9KK:3KRVW3HTZNL7Y5KU9DO9HKFGB5YMSY,5,1495051598295,"{""rt"": [22253, 1241, 3085], ""trial_type"": ""graph"", ""infoCost"": 1.6, ""feedback"": true, ""minTime"": 45, ""delays"": [8, 0, 1], ""actionTimes"": [22254, 33623, 38395], ""time_elapsed"": 253853, ""actions"": [""up"", ""up"", ""left""], ""trialIndex"": 2, ""score"": -7.8, ""trial_index"": 5, ""internal_node_id"": ""0.0-1.0-1.0"", ""clickTimes"": [6723, 9352, 15249], ""path"": [1, 3, 7, 12], ""trialID"": 0, ""clicks"": [""3"", ""4"", ""17""], ""condition"": 3}"
A1OBB3PWYWK9KK:3KRVW3HTZNL7Y5KU9DO9HKFGB5YMSY,6,1495051657688,"{""rt"": [22792, 1734, 2131], ""trial_type"": ""graph"", ""infoCost"": 1.6, ""feedback"": true, ""minTime"": 45, ""delays"": [8, 0, 1], ""actionTimes"": [22792, 34964, 38767], ""time_elapsed"": 313246, ""actions"": [""left"", ""left"", ""up""], ""trialIndex"": 3, ""score"": 29.2, ""trial_index"": 6, ""internal_node_id"": ""0.0-1.0-2.0"", ""clickTimes"": [12963, 17040, 19106], ""path"": [1, 4, 8, 14], ""trialID"": 5, ""clicks"": [""14"", ""16"", ""10""], ""condition"": 3}"
A1OBB3PWYWK9KK:3KRVW3HTZNL7Y5KU9DO9HKFGB5YMSY,7,1495051716309,"{""rt"": [7097, 7822, 4920], ""trial_type"": ""graph"", ""infoCost"": 1.6, ""feedback"": true, ""minTime"": 45, ""delays"": [8, 0, 1], ""actionTimes"": [7097, 24568, 31132], ""time_elapsed"": 371867, ""actions"": [""down"", ""down"", ""left""], ""trialIndex"": 4, ""score"": 4.4, ""trial_index"": 7, ""internal_node_id"": ""0.0-1.0-3.0"", ""clickTimes"": [28346], ""path"": [1, 5, 9, 16], ""trialID"": 3, ""clicks"": [""17""], ""condition"": 3}"
A1OBB3PWYWK9KK:3KRVW3HTZNL7Y5KU9DO9HKFGB5YMSY,8,1495051775670,"{""rt"": [6994, 3879, 6773], ""trial_type"": ""graph"", ""infoCost"": 1.6, ""feedback"": true, ""minTime"": 45, ""delays"": [8, 0, 1], ""actionTimes"": [6994, 19852, 27584], ""time_elapsed"": 431228, ""actions"": [""right"", ""right"", ""down""], ""trialIndex"": 5, ""score"": 12.8, ""trial_index"": 8, ""internal_node_id"": ""0.0-1.0-4.0"", ""clickTimes"": [21955, 24293], ""path"": [1, 2, 6, 11], ""trialID"": 6, ""clicks"": [""10"", ""11""], ""condition"": 3}"
A1OBB3PWYWK9KK:3KRVW3HTZNL7Y5KU9DO9HKFGB5YMSY,9,1495051833554,"{""rt"": [6169, 1536, 8619], ""trial_type"": ""graph"", ""infoCost"": 1.6, ""feedback"": true, ""minTime"": 45, ""delays"": [8, 0, 1], ""actionTimes"": [6169, 16668, 26246], ""time_elapsed"": 489112, ""actions"": [""down"", ""down"", ""right""], ""trialIndex"": 6, ""score"": -1.2, ""trial_index"": 9, ""internal_node_id"": ""0.0-1.0-5.0"", ""clickTimes"": [19097, 24457], ""path"": [1, 5, 9, 17], ""trialID"": 7, ""clicks"": [""16"", ""17""], ""condition"": 3}"
A1OBB3PWYWK9KK:3KRVW3HTZNL7Y5KU9DO9HKFGB5YMSY,10,1495051892539,"{""rt"": [19226, 2307, 2523], ""trial_type"": ""graph"", ""infoCost"": 1.6, ""feedback"": true, ""minTime"": 45, ""delays"": [8, 0, 1], ""actionTimes"": [19226, 30523, 34005], ""time_elapsed"": 548097, ""actions"": [""down"", ""down"", ""left""], ""trialIndex"": 7, ""score"": 33.2, ""trial_index"": 10, ""internal_node_id"": ""0.0-1.0-6.0"", ""clickTimes"": [1709, 4032, 5773, 6967, 8924, 10357, 11522, 15597], ""path"": [1, 5, 9, 16], ""trialID"": 1, ""clicks"": [""14"", ""12"", ""13"", ""10"", ""11"", ""17"", ""16"", ""15""], ""condition"": 3}"
A1OBB3PWYWK9KK:3KRVW3HTZNL7Y5KU9DO9HKFGB5YMSY,11,1495051949428,"{""rt"": [19826, 495, 1034], ""trial_type"": ""graph"", ""infoCost"": 1.6, ""feedback"": true, ""minTime"": 45, ""delays"": [8, 0, 1], ""actionTimes"": [19826, 29312, 31293], ""time_elapsed"": 604986, ""actions"": [""down"", ""down"", ""right""], ""trialIndex"": 8, ""score"": 27.6, ""trial_index"": 11, ""internal_node_id"": ""0.0-1.0-7.0"", ""clickTimes"": [2057, 4330, 5279, 6433, 7858, 9371, 10562, 11672, 17473], ""path"": [1, 5, 9, 17], ""trialID"": 4, ""clicks"": [""12"", ""13"", ""10"", ""11"", ""17"", ""16"", ""15"", ""14"", ""5""], ""condition"": 3}"
A1OBB3PWYWK9KK:3KRVW3HTZNL7Y5KU9DO9HKFGB5YMSY,12,1495051955402,"{""rt"": 4963, ""trial_type"": ""button-response"", ""button_pressed"": 0, ""stimulus"": ""<h1 id=\""thiscompletesthehit\"">This completes the HIT</h1>\n\n<p>One or your trials has been randomly selected and we will pay you 5% of your profit on that trial as a bonus. You will be awarded a bonus of $1.46</p>"", ""internal_node_id"": ""0.0-2.0"", ""time_elapsed"": 610960, ""trial_index"": 12}"
A24Z8V5IV2VJ8F:3HQUKB7LNFEWGI537MWXL10IL8IHHZ,0,1495052006696,"{""rt"": 214326, ""trial_type"": ""instructions"", ""view_history"": ""[{\""page_index\"":0,\""viewing_time\"":102623},{\""page_index\"":1,\""viewing_time\"":96982},{\""page_index\"":2,\""viewing_time\"":14719}]"", ""internal_node_id"": ""0.0-0.0-0.0"", ""time_elapsed"": 214328, ""trial_index"": 0}"
A24Z8V5IV2VJ8F:3HQUKB7LNFEWGI537MWXL10IL8IHHZ,1,1495052055512,"{""rt"": 46268, ""trial_type"": ""survey-multi-choice"", ""responses"": ""[\""1\"",\""False\"",\""$0.01\"",\""As many or as few as I wish\"",\""5% of my score on a random round\""]"", ""internal_node_id"": ""0.0-0.0-1.0"", ""time_elapsed"": 263143, ""questions"": ""[\""How many flights are there per round?\"",\""True or false: The hidden values will change each time I start a new round.\"",\""How much does it cost to observe each hidden value?\"",\""How many hidden values am I allowed to observe in each round?\"",\""How is your bonus determined?\""]"", ""correct"": [false, false, true, true, true], ""trial_index"": 1}"
A24Z8V5IV2VJ8F:3HQUKB7LNFEWGI537MWXL10IL8IHHZ,2,1495052061012,"{""rt"": 4497, ""trial_type"": ""instructions"", ""view_history"": ""[{\""page_index\"":0,\""viewing_time\"":1756},{\""page_index\"":1,\""viewing_time\"":1376},{\""page_index\"":2,\""viewing_time\"":1364}]"", ""internal_node_id"": ""0.0-0.1-0.1"", ""time_elapsed"": 268644, ""trial_index"": 2}"
A24Z8V5IV2VJ8F:3HQUKB7LNFEWGI537MWXL10IL8IHHZ,3,1495052098642,"{""rt"": 35497, ""trial_type"": ""survey-multi-choice"", ""responses"": ""[\""3\"",\""False\"",\""$0.01\"",\""As many or as few as I wish\"",\""5% of my score on a random round\""]"", ""internal_node_id"": ""0.0-0.1-1.1"", ""time_elapsed"": 306273, ""questions"": ""[\""How many flights are there per round?\"",\""True or false: The hidden values will change each time I start a new round.\"",\""How much does it cost to observe each hidden value?\"",\""How many hidden values am I allowed to observe in each round?\"",\""How is your bonus determined?\""]"", ""correct"": [true, false, true, true, true], ""trial_index"": 3}"
A24Z8V5IV2VJ8F:3HQUKB7LNFEWGI537MWXL10IL8IHHZ,4,1495052126279,"{""rt"": 26635, ""trial_type"": ""instructions"", ""view_history"": ""[{\""page_index\"":0,\""viewing_time\"":3835},{\""page_index\"":1,\""viewing_time\"":21312},{\""page_index\"":2,\""viewing_time\"":1488}]"", ""internal_node_id"": ""0.0-0.2-0.2"", ""time_elapsed"": 333910, ""trial_index"": 4}"
A24Z8V5IV2VJ8F:3HQUKB7LNFEWGI537MWXL10IL8IHHZ,5,1495052138600,"{""rt"": 10248, ""trial_type"": ""survey-multi-choice"", ""responses"": ""[\""1\"",\""True\"",\""$0.01\"",\""As many or as few as I wish\"",\""5% of my score on a random round\""]"", ""internal_node_id"": ""0.0-0.2-1.2"", ""time_elapsed"": 346232, ""questions"": ""[\""How many flights are there per round?\"",\""True or false: The hidden values will change each time I start a new round.\"",\""How much does it cost to observe each hidden value?\"",\""How many hidden values am I allowed to observe in each round?\"",\""How is your bonus determined?\""]"", ""correct"": [false, true, true, true, true], ""trial_index"": 5}"
A24Z8V5IV2VJ8F:3HQUKB7LNFEWGI537MWXL10IL8IHHZ,6,1495052192672,"{""rt"": 53070, ""trial_type"": ""instructions"", ""view_history"": ""[{\""page_index\"":0,\""viewing_time\"":43838},{\""page_index\"":1,\""viewing_time\"":6223},{\""page_index\"":2,\""viewing_time\"":3008}]"", ""internal_node_id"": ""0.0-0.3-0.3"", ""time_elapsed"": 400303, ""trial_index"": 6}"
A24Z8V5IV2VJ8F:3HQUKB7LNFEWGI537MWXL10IL8IHHZ,7,1495052220767,"{""rt"": 26001, ""trial_type"": ""survey-multi-choice"", ""responses"": ""[\""2\"",\""True\"",\""$0.01\"",\""As many or as few as I wish\"",\""5% of my score on a random round\""]"", ""internal_node_id"": ""0.0-0.3-1.3"", ""time_elapsed"": 428399, ""questions"": ""[\""How many flights are there per round?\"",\""True or false: The hidden values will change each time I start a new round.\"",\""How much does it cost to observe each hidden value?\"",\""How many hidden values am I allowed to observe in each round?\"",\""How is your bonus determined?\""]"", ""correct"": [false, true, true, true, true], ""trial_index"": 7}"
A24Z8V5IV2VJ8F:3HQUKB7LNFEWGI537MWXL10IL8IHHZ,8,1495052264494,"{""rt"": 42726, ""trial_type"": ""instructions"", ""view_history"": ""[{\""page_index\"":0,\""viewing_time\"":29990},{\""page_index\"":1,\""viewing_time\"":11143},{\""page_index\"":2,\""viewing_time\"":1593}]"", ""internal_node_id"": ""0.0-0.4-0.4"", ""time_elapsed"": 472126, ""trial_index"": 8}"
A24Z8V5IV2VJ8F:3HQUKB7LNFEWGI537MWXL10IL8IHHZ,9,1495052282401,"{""rt"": 15722, ""trial_type"": ""survey-multi-choice"", ""responses"": ""[\""3\"",\""True\"",\""$0.01\"",\""At most 5\"",\""5% of my score on a random round\""]"", ""internal_node_id"": ""0.0-0.4-1.4"", ""time_elapsed"": 490033, ""questions"": ""[\""How many flights are there per round?\"",\""True or false: The hidden values will change each time I start a new round.\"",\""How much does it cost to observe each hidden value?\"",\""How many hidden values am I allowed to observe in each round?\"",\""How is your bonus determined?\""]"", ""correct"": [true, true, true, false, true], ""trial_index"": 9}"
A24Z8V5IV2VJ8F:3HQUKB7LNFEWGI537MWXL10IL8IHHZ,10,1495052301968,"{""rt"": 18564, ""trial_type"": ""instructions"", ""view_history"": ""[{\""page_index\"":0,\""viewing_time\"":8932},{\""page_index\"":1,\""viewing_time\"":1454},{\""page_index\"":2,\""viewing_time\"":8178}]"", ""internal_node_id"": ""0.0-0.5-0.5"", ""time_elapsed"": 509599, ""trial_index"": 10}"
A24Z8V5IV2VJ8F:3HQUKB7LNFEWGI537MWXL10IL8IHHZ,11,1495052315470,"{""rt"": 11361, ""trial_type"": ""survey-multi-choice"", ""responses"": ""[\""3\"",\""True\"",\""$0.01\"",\""At most 1\"",\""5% of my score on a random round\""]"", ""internal_node_id"": ""0.0-0.5-1.5"", ""time_elapsed"": 523102, ""questions"": ""[\""How many flights are there per round?\"",\""True or false: The hidden values will change each time I start a new round.\"",\""How much does it cost to observe each hidden value?\"",\""How many hidden values am I allowed to observe in each round?\"",\""How is your bonus determined?\""]"", ""correct"": [true, true, true, false, true], ""trial_index"": 11}"
A24Z8V5IV2VJ8F:3HQUKB7LNFEWGI537MWXL10IL8IHHZ,12,1495052384797,"{""rt"": 68325, ""trial_type"": ""instructions"", ""view_history"": ""[{\""page_index\"":0,\""viewing_time\"":45206},{\""page_index\"":1,\""viewing_time\"":20495},{\""page_index\"":2,\""viewing_time\"":2624}]"", ""internal_node_id"": ""0.0-0.6-0.6"", ""time_elapsed"": 592429, ""trial_index"": 12}"
A24Z8V5IV2VJ8F:3HQUKB7LNFEWGI537MWXL10IL8IHHZ,13,1495052398190,"{""rt"": 11259, ""trial_type"": ""survey-multi-choice"", ""responses"": ""[\""3\"",\""True\"",\""$0.01\"",\""At most 1\"",\""5% of my score on a random round\""]"", ""internal_node_id"": ""0.0-0.6-1.6"", ""time_elapsed"": 605822, ""questions"": ""[\""How many flights are there per round?\"",\""True or false: The hidden values will change each time I start a new round.\"",\""How much does it cost to observe each hidden value?\"",\""How many hidden values am I allowed to observe in each round?\"",\""How is your bonus determined?\""]"", ""correct"": [true, true, true, false, true], ""trial_index"": 13}"
A24Z8V5IV2VJ8F:3HQUKB7LNFEWGI537MWXL10IL8IHHZ,14,1495052455911,"{""rt"": 56718, ""trial_type"": ""instructions"", ""view_history"": ""[{\""page_index\"":0,\""viewing_time\"":32126},{\""page_index\"":1,\""viewing_time\"":19647},{\""page_index\"":2,\""viewing_time\"":4944}]"", ""internal_node_id"": ""0.0-0.7-0.7"", ""time_elapsed"": 663543, ""trial_index"": 14}"
A24Z8V5IV2VJ8F:3HQUKB7LNFEWGI537MWXL10IL8IHHZ,15,1495052469634,"{""rt"": 12697, ""trial_type"": ""survey-multi-choice"", ""responses"": ""[\""3\"",\""True\"",\""$0.01\"",\""As many or as few as I wish\"",\""5% of my score on a random round\""]"", ""internal_node_id"": ""0.0-0.7-1.7"", ""time_elapsed"": 677266, ""questions"": ""[\""How many flights are there per round?\"",\""True or false: The hidden values will change each time I start a new round.\"",\""How much does it cost to observe each hidden value?\"",\""How many hidden values am I allowed to observe in each round?\"",\""How is your bonus determined?\""]"", ""correct"": [true, true, true, true, true], ""trial_index"": 15}"
A24Z8V5IV2VJ8F:3HQUKB7LNFEWGI537MWXL10IL8IHHZ,16,1495052549271,"{""rt"": [57762, 3654, 1380], ""trial_type"": ""graph"", ""infoCost"": 0.01, ""feedback"": true, ""minTime"": 45, ""delays"": [8, 0, 1], ""actionTimes"": [57763, 70953, 73499], ""time_elapsed"": 756903, ""actions"": [""right"", ""right"", ""up""], ""trialIndex"": 1, ""score"": 33.96, ""trial_index"": 16, ""internal_node_id"": ""0.0-1.0-0.0"", ""clickTimes"": [48755, 53977, 55114, 68994], ""path"": [1, 2, 6, 10], ""trialID"": 3, ""clicks"": [""2"", ""6"", ""10"", ""11""], ""condition"": 0}"
A24Z8V5IV2VJ8F:3HQUKB7LNFEWGI537MWXL10IL8IHHZ,17,1495052622469,"{""rt"": [14368, 445, 746], ""trial_type"": ""graph"", ""infoCost"": 0.01, ""feedback"": true, ""minTime"": 45, ""delays"": [8, 0, 1], ""actionTimes"": [14368, 23337, 24987], ""time_elapsed"": 830101, ""actions"": [""right"", ""right"", ""up""], ""trialIndex"": 2, ""score"": 33.84, ""trial_index"": 17, ""internal_node_id"": ""0.0-1.0-1.0"", ""clickTimes"": [1595, 2051, 2451, 3077, 4298, 4658, 5163, 5906, 7131, 7395, 7675, 8171, 9186, 9466, 9762, 10571], ""path"": [1, 2, 6, 10], ""trialID"": 2, ""clicks"": [""4"", ""8"", ""14"", ""15"", ""3"", ""7"", ""12"", ""13"", ""2"", ""6"", ""10"", ""11"", ""5"", ""9"", ""16"", ""17""], ""condition"": 0}"
A24Z8V5IV2VJ8F:3HQUKB7LNFEWGI537MWXL10IL8IHHZ,18,1495052680997,"{""rt"": [10082, 1388, 1865], ""trial_type"": ""graph"", ""infoCost"": 0.01, ""feedback"": true, ""minTime"": 45, ""delays"": [8, 0, 1], ""actionTimes"": [10082, 19992, 22707], ""time_elapsed"": 888629, ""actions"": [""up"", ""up"", ""left""], ""trialIndex"": 3, ""score"": 36.84, ""trial_index"": 18, ""internal_node_id"": ""0.0-1.0-2.0"", ""clickTimes"": [1222, 1694, 2045, 2574, 3213, 3533, 3973, 5029, 5526, 5910, 6366, 6768, 7534, 7826, 8502, 9046], ""path"": [1, 3, 7, 12], ""trialID"": 6, ""clicks"": [""4"", ""8"", ""14"", ""15"", ""16"", ""9"", ""5"", ""17"", ""11"", ""6"", ""10"", ""2"", ""3"", ""7"", ""13"", ""12""], ""condition"": 0}"
A24Z8V5IV2VJ8F:3HQUKB7LNFEWGI537MWXL10IL8IHHZ,19,1495052742575,"{""rt"": [14825, 1151, 285], ""trial_type"": ""graph"", ""infoCost"": 0.01, ""feedback"": true, ""minTime"": 45, ""delays"": [8, 0, 1], ""actionTimes"": [14825, 24490, 25636], ""time_elapsed"": 950206, ""actions"": [""left"", ""left"", ""up""], ""trialIndex"": 4, ""score"": 33.84, ""trial_index"": 19, ""internal_node_id"": ""0.0-1.0-3.0"", ""clickTimes"": [2568, 3160, 3584, 4272, 4975, 5336, 5784, 6344, 7416, 7768, 8056, 8416, 9335, 9664, 9968, 10359], ""path"": [1, 4, 8, 14], ""trialID"": 5, ""clicks"": [""2"", ""6"", ""10"", ""11"", ""9"", ""16"", ""17"", ""5"", ""15"", ""8"", ""4"", ""14"", ""12"", ""7"", ""3"", ""13""], ""condition"": 0}"
A24Z8V5IV2VJ8F:3HQUKB7LNFEWGI537MWXL10IL8IHHZ,20,1495052805604,"{""rt"": [11468, 7559, 711], ""trial_type"": ""graph"", ""infoCost"": 0.01, ""feedback"": true, ""minTime"": 45, ""delays"": [8, 0, 1], ""actionTimes"": [11469, 27549, 29143], ""time_elapsed"": 1013236, ""actions"": [""left"", ""left"", ""up""], ""trialIndex"": 5, ""score"": 39.84, ""trial_index"": 20, ""internal_node_id"": ""0.0-1.0-4.0"", ""clickTimes"": [2098, 2786, 3090, 3602, 4218, 4690, 5017, 5545, 6585, 6817, 7194, 7649, 8193, 8505, 9410, 9803], ""path"": [1, 4, 8, 14], ""trialID"": 0, ""clicks"": [""2"", ""6"", ""10"", ""11"", ""5"", ""9"", ""17"", ""16"", ""15"", ""8"", ""4"", ""14"", ""3"", ""7"", ""13"", ""12""], ""condition"": 0}"
A24Z8V5IV2VJ8F:3HQUKB7LNFEWGI537MWXL10IL8IHHZ,21,1495052865084,"{""rt"": [11406, 473, 216], ""trial_type"": ""graph"", ""infoCost"": 0.01, ""feedback"": true, ""minTime"": 45, ""delays"": [8, 0, 1], ""actionTimes"": [11406, 20389, 21491], ""time_elapsed"": 1072716, ""actions"": [""right"", ""right"", ""up""], ""trialIndex"": 6, ""score"": 21.84, ""trial_index"": 21, ""internal_node_id"": ""0.0-1.0-5.0"", ""clickTimes"": [2646, 3014, 3342, 3878, 4431, 4838, 5190, 5606, 6350, 6646, 6933, 7718, 8310, 8678, 9046, 9598], ""path"": [1, 2, 6, 10], ""trialID"": 7, ""clicks"": [""5"", ""9"", ""16"", ""17"", ""2"", ""6"", ""10"", ""11"", ""4"", ""8"", ""14"", ""15"", ""3"", ""7"", ""12"", ""13""], ""condition"": 0}"
A24Z8V5IV2VJ8F:3HQUKB7LNFEWGI537MWXL10IL8IHHZ,22,1495052924444,"{""rt"": [13208, 736, 2], ""trial_type"": ""graph"", ""infoCost"": 0.01, ""feedback"": true, ""minTime"": 45, ""delays"": [8, 0, 1], ""actionTimes"": [13208, 22461, 23329], ""time_elapsed"": 1132075, ""actions"": [""down"", ""down"", ""right""], ""trialIndex"": 7, ""score"": 41.84, ""trial_index"": 22, ""internal_node_id"": ""0.0-1.0-6.0"", ""clickTimes"": [1601, 1953, 2289, 2705, 3369, 3632, 4017, 4385, 5625, 5873, 6265, 6657, 7952, 8256, 8616, 9072], ""path"": [1, 5, 9, 17], ""trialID"": 4, ""clicks"": [""2"", ""6"", ""10"", ""11"", ""9"", ""5"", ""17"", ""16"", ""8"", ""4"", ""14"", ""15"", ""7"", ""12"", ""3"", ""13""], ""condition"": 0}"
A24Z8V5IV2VJ8F:3HQUKB7LNFEWGI537MWXL10IL8IHHZ,23,1495052982837,"{""rt"": [10427, 1757, 307], ""trial_type"": ""graph"", ""infoCost"": 0.01, ""feedback"": true, ""minTime"": 45, ""delays"": [8, 0, 1], ""actionTimes"": [10427, 20694, 21849], ""time_elapsed"": 1190469, ""actions"": [""down"", ""down"", ""left""], ""trialIndex"": 8, ""score"": 45.84, ""trial_index"": 23, ""internal_node_id"": ""0.0-1.0-7.0"", ""clickTimes"": [2228, 2597, 2932, 3340, 3965, 4316, 4621, 5006, 5876, 6132, 6461, 7164, 7676, 7964, 8428, 9038], ""path"": [1, 5, 9, 16], ""trialID"": 1, ""clicks"": [""2"", ""6"", ""10"", ""11"", ""5"", ""9"", ""17"", ""16"", ""15"", ""8"", ""4"", ""14"", ""3"", ""7"", ""12"", ""13""], ""condition"": 0}"
A24Z8V5IV2VJ8F:3HQUKB7LNFEWGI537MWXL10IL8IHHZ,24,1495052987650,"{""rt"": 3799, ""trial_type"": ""button-response"", ""button_pressed"": 0, ""stimulus"": ""<h1 id=\""thiscompletesthehit\"">This completes the HIT</h1>\n\n<p>One or your trials has been randomly selected and we will pay you 5% of your profit on that trial as a bonus. You will be awarded a bonus of $2.09</p>"", ""internal_node_id"": ""0.0-2.0"", ""time_elapsed"": 1195282, ""trial_index"": 24}"
A2CMSEHTB3NQS9:32M8BPYGATMICHLCTYW00DPW6LKGIS,0,1495051878165,"{""rt"": 88543, ""trial_type"": ""instructions"", ""view_history"": ""[{\""page_index\"":0,\""viewing_time\"":34798},{\""page_index\"":1,\""viewing_time\"":16607},{\""page_index\"":2,\""viewing_time\"":28228},{\""page_index\"":3,\""viewing_time\"":8908}]"", ""internal_node_id"": ""0.0-0.0-0.0"", ""time_elapsed"": 88544, ""trial_index"": 0}"
A2CMSEHTB3NQS9:32M8BPYGATMICHLCTYW00DPW6LKGIS,1,1495051911413,"{""rt"": 30970, ""trial_type"": ""survey-multi-choice"", ""responses"": ""[\""1\"",\""True\"",\""$2.80\"",\""As many or as few as I wish\"",\""5% of my score on a random round\"",\""Whether I chose the move that was best according to the information I had.\""]"", ""internal_node_id"": ""0.0-0.0-1.0"", ""time_elapsed"": 121793, ""questions"": ""[\""How many flights are there per round?\"",\""True or false: The hidden values will change each time I start a new round.\"",\""How much does it cost to observe each hidden value?\"",\""How many hidden values am I allowed to observe in each round?\"",\""How is your bonus determined?\"",\""What does the feedback teach you?\""]"", ""correct"": [false, true, true, true, true, false], ""trial_index"": 1}"
A2CMSEHTB3NQS9:32M8BPYGATMICHLCTYW00DPW6LKGIS,2,1495051948131,"{""rt"": 35714, ""trial_type"": ""instructions"", ""view_history"": ""[{\""page_index\"":0,\""viewing_time\"":2544},{\""page_index\"":1,\""viewing_time\"":15769},{\""page_index\"":2,\""viewing_time\"":12831},{\""page_index\"":3,\""viewing_time\"":4569}]"", ""internal_node_id"": ""0.0-0.1-0.1"", ""time_elapsed"": 158511, ""trial_index"": 2}"
A2CMSEHTB3NQS9:32M8BPYGATMICHLCTYW00DPW6LKGIS,3,1495051967972,"{""rt"": 17460, ""trial_type"": ""survey-multi-choice"", ""responses"": ""[\""1\"",\""True\"",\""$2.80\"",\""As many or as few as I wish\"",\""5% of my score on a random round\"",\""All of the above.\""]"", ""internal_node_id"": ""0.0-0.1-1.1"", ""time_elapsed"": 178351, ""questions"": ""[\""How many flights are there per round?\"",\""True or false: The hidden values will change each time I start a new round.\"",\""How much does it cost to observe each hidden value?\"",\""How many hidden values am I allowed to observe in each round?\"",\""How is your bonus determined?\"",\""What does the feedback teach you?\""]"", ""correct"": [false, true, true, true, true, true], ""trial_index"": 3}"
A2CMSEHTB3NQS9:32M8BPYGATMICHLCTYW00DPW6LKGIS,4,1495052058996,"{""rt"": 90020, ""trial_type"": ""instructions"", ""view_history"": ""[{\""page_index\"":0,\""viewing_time\"":24002},{\""page_index\"":1,\""viewing_time\"":14712},{\""page_index\"":2,\""viewing_time\"":39968},{\""page_index\"":3,\""viewing_time\"":11337}]"", ""internal_node_id"": ""0.0-0.2-0.2"", ""time_elapsed"": 269374, ""trial_index"": 4}"
A2CMSEHTB3NQS9:32M8BPYGATMICHLCTYW00DPW6LKGIS,5,1495052092796,"{""rt"": 32664, ""trial_type"": ""survey-multi-choice"", ""responses"": ""[\""3\"",\""True\"",\""$2.80\"",\""As many or as few as I wish\"",\""5% of my score on a random round\"",\""All of the above.\""]"", ""internal_node_id"": ""0.0-0.2-1.2"", ""time_elapsed"": 303175, ""questions"": ""[\""How many flights are there per round?\"",\""True or false: The hidden values will change each time I start a new round.\"",\""How much does it cost to observe each hidden value?\"",\""How many hidden values am I allowed to observe in each round?\"",\""How is your bonus determined?\"",\""What does the feedback teach you?\""]"", ""correct"": [true, true, true, true, true, true], ""trial_index"": 5}"
A2CMSEHTB3NQS9:32M8BPYGATMICHLCTYW00DPW6LKGIS,6,1495052153079,"{""rt"": [15503, 2045, 3077], ""trial_type"": ""graph"", ""infoCost"": 2.8, ""feedback"": true, ""minTime"": 45, ""delays"": [0, -1, 4], ""actionTimes"": [15505, 20205, 25100], ""time_elapsed"": 363458, ""actions"": [""right"", ""right"", ""up""], ""trialIndex"": 1, ""score"": 25.6, ""trial_index"": 6, ""internal_node_id"": ""0.0-1.0-0.0"", ""clickTimes"": [8943, 22035, 23233], ""path"": [1, 2, 6, 10], ""trialID"": 2, ""clicks"": [""2"", ""10"", ""11""], ""condition"": 8}"
A2CMSEHTB3NQS9:32M8BPYGATMICHLCTYW00DPW6LKGIS,7,1495052231924,"{""rt"": [7059, 3174, 1699], ""trial_type"": ""graph"", ""infoCost"": 2.8, ""feedback"": true, ""minTime"": 45, ""delays"": [17, -1, 9], ""actionTimes"": [7059, 29885, 33371], ""time_elapsed"": 442303, ""actions"": [""up"", ""up"", ""left""], ""trialIndex"": 2, ""score"": 17.4, ""trial_index"": 7, ""internal_node_id"": ""0.0-1.0-1.0"", ""clickTimes"": [1948, 2692, 3565, 4202, 31692, 32379, 46764], ""path"": [1, 3, 7, 12], ""trialID"": 6, ""clicks"": [""3"", ""2"", ""5"", ""4"", ""13"", ""12"", ""7""], ""condition"": 8}"
A2CMSEHTB3NQS9:32M8BPYGATMICHLCTYW00DPW6LKGIS,8,1495052389843,"{""rt"": [4586, 11, 6724], ""trial_type"": ""graph"", ""infoCost"": 2.8, ""feedback"": true, ""minTime"": 45, ""delays"": [-41, -5, 16], ""actionTimes"": [4586, 7270, 16025], ""time_elapsed"": 600221, ""actions"": [""up"", ""up"", ""left""], ""trialIndex"": 3, ""score"": 12.6, ""trial_index"": 8, ""internal_node_id"": ""0.0-1.0-2.0"", ""clickTimes"": [2518, 10196, 11420], ""path"": [1, 3, 7, 12], ""trialID"": 1, ""clicks"": [""3"", ""13"", ""12""], ""condition"": 8}"
A2CMSEHTB3NQS9:32M8BPYGATMICHLCTYW00DPW6LKGIS,9,1495052665662,"{""rt"": [19019, 217982, 699], ""trial_type"": ""graph"", ""infoCost"": 2.8, ""feedback"": true, ""minTime"": 45, ""delays"": [24, -1, -27], ""actionTimes"": [19019, 264388, 266860], ""time_elapsed"": 876041, ""actions"": [""left"", ""left"", ""up""], ""trialIndex"": 4, ""score"": 14.4, ""trial_index"": 9, ""internal_node_id"": ""0.0-1.0-3.0"", ""clickTimes"": [7240, 9849, 11230, 13099, 15288, 16425, 17633], ""path"": [1, 4, 8, 14], ""trialID"": 5, ""clicks"": [""3"", ""13"", ""12"", ""2"", ""10"", ""4"", ""14""], ""condition"": 8}"
A2CMSEHTB3NQS9:32M8BPYGATMICHLCTYW00DPW6LKGIS,10,1495052713788,"{""rt"": [13090, 17, 10], ""trial_type"": ""graph"", ""infoCost"": 2.8, ""feedback"": true, ""minTime"": 45, ""delays"": [-28, -4, -5], ""actionTimes"": [13091, 15356, 16994], ""time_elapsed"": 924167, ""actions"": [""left"", ""left"", ""down""], ""trialIndex"": 5, ""score"": 28.8, ""trial_index"": 10, ""internal_node_id"": ""0.0-1.0-4.0"", ""clickTimes"": [5307, 8570, 11233, 12408], ""path"": [1, 4, 8, 15], ""trialID"": 0, ""clicks"": [""4"", ""8"", ""14"", ""15""], ""condition"": 8}"
A2CMSEHTB3NQS9:32M8BPYGATMICHLCTYW00DPW6LKGIS,11,1495052880646,"{""rt"": [7463, 3322, 10], ""trial_type"": ""graph"", ""infoCost"": 2.8, ""feedback"": true, ""minTime"": 45, ""delays"": [56, -2, -71], ""actionTimes"": [7463, 69037, 70689], ""time_elapsed"": 1091025, ""actions"": [""right"", ""right"", ""up""], ""trialIndex"": 6, ""score"": 20, ""trial_index"": 11, ""internal_node_id"": ""0.0-1.0-5.0"", ""clickTimes"": [1694, 3120, 4754, 5517, 6221], ""path"": [1, 2, 6, 10], ""trialID"": 3, ""clicks"": [""4"", ""2"", ""6"", ""10"", ""11""], ""condition"": 8}"
A2CMSEHTB3NQS9:32M8BPYGATMICHLCTYW00DPW6LKGIS,12,1495052929073,"{""rt"": [19562, 11, 18], ""trial_type"": ""graph"", ""infoCost"": 2.8, ""feedback"": true, ""minTime"": 45, ""delays"": [-16, -4, -5], ""actionTimes"": [19563, 21562, 22921], ""time_elapsed"": 1139452, ""actions"": [""down"", ""down"", ""right""], ""trialIndex"": 7, ""score"": 16.8, ""trial_index"": 12, ""internal_node_id"": ""0.0-1.0-6.0"", ""clickTimes"": [5892, 7298, 9769, 10857, 11921, 13433, 16037, 16881, 18050], ""path"": [1, 5, 9, 17], ""trialID"": 4, ""clicks"": [""2"", ""4"", ""8"", ""14"", ""15"", ""5"", ""9"", ""17"", ""16""], ""condition"": 8}"
A2CMSEHTB3NQS9:32M8BPYGATMICHLCTYW00DPW6LKGIS,13,1495053025612,"{""rt"": [11090, 2347, 18], ""trial_type"": ""graph"", ""infoCost"": 2.8, ""feedback"": true, ""minTime"": 45, ""delays"": [46, -1, -27], ""actionTimes"": [11090, 61698, 63297], ""time_elapsed"": 1235991, ""actions"": [""right"", ""right"", ""up""], ""trialIndex"": 8, ""score"": 2.4, ""trial_index"": 13, ""internal_node_id"": ""0.0-1.0-7.0"", ""clickTimes"": [1631, 2926, 4897, 5681, 6872, 7768, 8728], ""path"": [1, 2, 6, 10], ""trialID"": 7, ""clicks"": [""3"", ""2"", ""5"", ""4"", ""6"", ""10"", ""11""], ""condition"": 8}"
A2CMSEHTB3NQS9:32M8BPYGATMICHLCTYW00DPW6LKGIS,14,1495053034271,"{""rt"": 7604, ""trial_type"": ""button-response"", ""button_pressed"": 0, ""stimulus"": ""<h1 id=\""thiscompletesthehit\"">This completes the HIT</h1>\n\n<p>One or your trials has been randomly selected and we will pay you 5% of your profit on that trial as a bonus. You will be awarded a bonus of $0.72</p>"", ""internal_node_id"": ""0.0-2.0"", ""time_elapsed"": 1244651, ""trial_index"": 14}"
A2WC2NO555XU3J:33M4IA01QG16R2JL8VQD2RQIW7YRXY,0,1495049114505,"{""rt"": 86642, ""trial_type"": ""instructions"", ""view_history"": ""[{\""page_index\"":0,\""viewing_time\"":30047},{\""page_index\"":1,\""viewing_time\"":17039},{\""page_index\"":2,\""viewing_time\"":29262},{\""page_index\"":3,\""viewing_time\"":10293}]"", ""internal_node_id"": ""0.0-0.0-0.0"", ""time_elapsed"": 86642, ""trial_index"": 0}"
A2WC2NO555XU3J:33M4IA01QG16R2JL8VQD2RQIW7YRXY,1,1495049180102,"{""rt"": 62605, ""trial_type"": ""survey-multi-choice"", ""responses"": ""[\""1\"",\""True\"",\""$0.01\"",\""As many or as few as I wish\"",\""5% of my score on a random round\"",\""All of the above.\""]"", ""internal_node_id"": ""0.0-0.0-1.0"", ""time_elapsed"": 152239, ""questions"": ""[\""How many flights are there per round?\"",\""True or false: The hidden values will change each time I start a new round.\"",\""How much does it cost to observe each hidden value?\"",\""How many hidden values am I allowed to observe in each round?\"",\""How is your bonus determined?\"",\""What does the feedback teach you?\""]"", ""correct"": [false, true, true, true, true, true], ""trial_index"": 1}"
A2WC2NO555XU3J:33M4IA01QG16R2JL8VQD2RQIW7YRXY,2,1495049280010,"{""rt"": 98904, ""trial_type"": ""instructions"", ""view_history"": ""[{\""page_index\"":0,\""viewing_time\"":20756},{\""page_index\"":1,\""viewing_time\"":10556},{\""page_index\"":2,\""viewing_time\"":22708},{\""page_index\"":3,\""viewing_time\"":18584},{\""page_index\"":2,\""viewing_time\"":1636},{\""page_index\"":1,\""viewing_time\"":1616},{\""page_index\"":0,\""viewing_time\"":11068},{\""page_index\"":1,\""viewing_time\"":4141},{\""page_index\"":2,\""viewing_time\"":6319},{\""page_index\"":3,\""viewing_time\"":1520}]"", ""internal_node_id"": ""0.0-0.1-0.1"", ""time_elapsed"": 252146, ""trial_index"": 2}"
A2WC2NO555XU3J:33M4IA01QG16R2JL8VQD2RQIW7YRXY,3,1495049551865,"{""rt"": 269287, ""trial_type"": ""survey-multi-choice"", ""responses"": ""[\""2\"",\""True\"",\""$0.01\"",\""As many or as few as I wish\"",\""5% of my score on a random round\"",\""All of the above.\""]"", ""internal_node_id"": ""0.0-0.1-1.1"", ""time_elapsed"": 524001, ""questions"": ""[\""How many flights are there per round?\"",\""True or false: The hidden values will change each time I start a new round.\"",\""How much does it cost to observe each hidden value?\"",\""How many hidden values am I allowed to observe in each round?\"",\""How is your bonus determined?\"",\""What does the feedback teach you?\""]"", ""correct"": [false, true, true, true, true, true], ""trial_index"": 3}"
A2WC2NO555XU3J:33M4IA01QG16R2JL8VQD2RQIW7YRXY,4,1495049565499,"{""rt"": 12633, ""trial_type"": ""instructions"", ""view_history"": ""[{\""page_index\"":0,\""viewing_time\"":1138},{\""page_index\"":1,\""viewing_time\"":1220},{\""page_index\"":2,\""viewing_time\"":1432},{\""page_index\"":1,\""viewing_time\"":2795},{\""page_index\"":2,\""viewing_time\"":4158},{\""page_index\"":3,\""viewing_time\"":1889}]"", ""internal_node_id"": ""0.0-0.2-0.2"", ""time_elapsed"": 537636, ""trial_index"": 4}"
A2WC2NO555XU3J:33M4IA01QG16R2JL8VQD2RQIW7YRXY,5,1495049580047,"{""rt"": 12356, ""trial_type"": ""survey-multi-choice"", ""responses"": ""[\""4\"",\""True\"",\""$0.01\"",\""As many or as few as I wish\"",\""5% of my score on a random round\"",\""All of the above.\""]"", ""internal_node_id"": ""0.0-0.2-1.2"", ""time_elapsed"": 552184, ""questions"": ""[\""How many flights are there per round?\"",\""True or false: The hidden values will change each time I start a new round.\"",\""How much does it cost to observe each hidden value?\"",\""How many hidden values am I allowed to observe in each round?\"",\""How is your bonus determined?\"",\""What does the feedback teach you?\""]"", ""correct"": [false, true, true, true, true, true], ""trial_index"": 5}"
A2WC2NO555XU3J:33M4IA01QG16R2JL8VQD2RQIW7YRXY,6,1495049584846,"{""rt"": 3798, ""trial_type"": ""instructions"", ""view_history"": ""[{\""page_index\"":0,\""viewing_time\"":963},{\""page_index\"":1,\""viewing_time\"":917},{\""page_index\"":2,\""viewing_time\"":1097},{\""page_index\"":3,\""viewing_time\"":821}]"", ""internal_node_id"": ""0.0-0.3-0.3"", ""time_elapsed"": 556983, ""trial_index"": 6}"
A2WC2NO555XU3J:33M4IA01QG16R2JL8VQD2RQIW7YRXY,7,1495049600328,"{""rt"": 14458, ""trial_type"": ""survey-multi-choice"", ""responses"": ""[\""3\"",\""True\"",\""$0.01\"",\""As many or as few as I wish\"",\""5% of my score on a random round\"",\""All of the above.\""]"", ""internal_node_id"": ""0.0-0.3-1.3"", ""time_elapsed"": 572465, ""questions"": ""[\""How many flights are there per round?\"",\""True or false: The hidden values will change each time I start a new round.\"",\""How much does it cost to observe each hidden value?\"",\""How many hidden values am I allowed to observe in each round?\"",\""How is your bonus determined?\"",\""What does the feedback teach you?\""]"", ""correct"": [true, true, true, true, true, true], ""trial_index"": 7}"
A2WC2NO555XU3J:33M4IA01QG16R2JL8VQD2RQIW7YRXY,8,1495049676852,"{""rt"": [12104, 562, 1300], ""trial_type"": ""graph"", ""infoCost"": 0.01, ""feedback"": true, ""minTime"": 45, ""delays"": [2, -24, 24], ""actionTimes"": [12105, 15865, 18073], ""time_elapsed"": 648989, ""actions"": [""right"", ""right"", ""up""], ""trialIndex"": 1, ""score"": 7.94, ""trial_index"": 8, ""internal_node_id"": ""0.0-1.0-0.0"", ""clickTimes"": [6309, 9491, 45637, 47193, 49068, 58421], ""path"": [1, 2, 6, 10], ""trialID"": 0, ""clicks"": [""6"", ""10"", ""4"", ""2"", ""11"", ""5""], ""condition"": 2}"
A2WC2NO555XU3J:33M4IA01QG16R2JL8VQD2RQIW7YRXY,9,1495049779490,"{""rt"": [22731, 3344, 142], ""trial_type"": ""graph"", ""infoCost"": 0.01, ""feedback"": true, ""minTime"": 45, ""delays"": [55, -24, -52], ""actionTimes"": [22731, 82010, 82977], ""time_elapsed"": 751627, ""actions"": [""right"", ""right"", ""up""], ""trialIndex"": 2, ""score"": 33.9, ""trial_index"": 9, ""internal_node_id"": ""0.0-1.0-1.0"", ""clickTimes"": [12321, 13016, 13710, 14173, 15054, 16015, 16849, 19421, 20078, 20736], ""path"": [1, 2, 6, 10], ""trialID"": 3, ""clicks"": [""5"", ""4"", ""3"", ""2"", ""9"", ""17"", ""16"", ""6"", ""11"", ""10""], ""condition"": 2}"
A2WC2NO555XU3J:33M4IA01QG16R2JL8VQD2RQIW7YRXY,10,1495049826041,"{""rt"": [18943, 164, 30], ""trial_type"": ""graph"", ""infoCost"": 0.01, ""feedback"": true, ""minTime"": 45, ""delays"": [-10, 0, -4], ""actionTimes"": [18944, 19849, 20623], ""time_elapsed"": 798177, ""actions"": [""right"", ""right"", ""up""], ""trialIndex"": 3, ""score"": 33.84, ""trial_index"": 10, ""internal_node_id"": ""0.0-1.0-2.0"", ""clickTimes"": [1144, 1607, 2194, 2657, 3459, 4314, 5809, 7258, 8236, 9490, 11151, 11774, 12863, 16259, 16644, 17037], ""path"": [1, 2, 6, 10], ""trialID"": 2, ""clicks"": [""5"", ""2"", ""3"", ""4"", ""9"", ""16"", ""17"", ""6"", ""11"", ""10"", ""8"", ""15"", ""14"", ""7"", ""13"", ""12""], ""condition"": 2}"
A2WC2NO555XU3J:33M4IA01QG16R2JL8VQD2RQIW7YRXY,11,1495049886930,"{""rt"": [14759, 1574, 892], ""trial_type"": ""graph"", ""infoCost"": 0.01, ""feedback"": true, ""minTime"": 45, ""delays"": [14, 0, -43], ""actionTimes"": [14759, 31311, 33047], ""time_elapsed"": 859066, ""actions"": [""left"", ""left"", ""up""], ""trialIndex"": 4, ""score"": 33.88, ""trial_index"": 11, ""internal_node_id"": ""0.0-1.0-3.0"", ""clickTimes"": [1125, 1430, 1900, 2176, 2835, 4845, 6811, 7638, 8822, 10264, 11739, 12494], ""path"": [1, 4, 8, 14], ""trialID"": 5, ""clicks"": [""5"", ""2"", ""3"", ""4"", ""7"", ""8"", ""15"", ""14"", ""9"", ""6"", ""10"", ""11""], ""condition"": 2}"
A2WC2NO555XU3J:33M4IA01QG16R2JL8VQD2RQIW7YRXY,12,1495049935498,"{""rt"": [19722, 103, 1718], ""trial_type"": ""graph"", ""infoCost"": 0.01, ""feedback"": true, ""minTime"": 45, ""delays"": [-72, 1, 1], ""actionTimes"": [19722, 20577, 23994], ""time_elapsed"": 907635, ""actions"": [""down"", ""down"", ""left""], ""trialIndex"": 5, ""score"": 45.84, ""trial_index"": 12, ""internal_node_id"": ""0.0-1.0-4.0"", ""clickTimes"": [1507, 2032, 2452, 2826, 3635, 4278, 4991, 6663, 7223, 7714, 12043, 12657, 13139, 16970, 17416, 17739], ""path"": [1, 5, 9, 16], ""trialID"": 1, ""clicks"": [""2"", ""3"", ""4"", ""5"", ""7"", ""13"", ""12"", ""9"", ""16"", ""17"", ""8"", ""14"", ""15"", ""6"", ""10"", ""11""], ""condition"": 2}"
A2WC2NO555XU3J:33M4IA01QG16R2JL8VQD2RQIW7YRXY,13,1495049995145,"{""rt"": [32235, 460, 27], ""trial_type"": ""graph"", ""infoCost"": 0.01, ""feedback"": true, ""minTime"": 45, ""delays"": [13, 0, -27], ""actionTimes"": [32235, 46428, 47162], ""time_elapsed"": 967282, ""actions"": [""right"", ""right"", ""up""], ""trialIndex"": 6, ""score"": 21.84, ""trial_index"": 13, ""internal_node_id"": ""0.0-1.0-5.0"", ""clickTimes"": [1004, 1343, 1654, 1920, 2581, 3396, 6554, 8119, 8814, 9349, 10390, 11191, 11795, 15388, 15823, 16207], ""path"": [1, 2, 6, 10], ""trialID"": 7, ""clicks"": [""2"", ""3"", ""4"", ""5"", ""6"", ""10"", ""11"", ""7"", ""12"", ""13"", ""8"", ""15"", ""14"", ""9"", ""16"", ""17""], ""condition"": 2}"
A2WC2NO555XU3J:33M4IA01QG16R2JL8VQD2RQIW7YRXY,14,1495050041835,"{""rt"": [9372, 1874, 923], ""trial_type"": ""graph"", ""infoCost"": 0.01, ""feedback"": true, ""minTime"": 45, ""delays"": [-37, 0, 0], ""actionTimes"": [9372, 12203, 13907], ""time_elapsed"": 1013971, ""actions"": [""up"", ""up"", ""left""], ""trialIndex"": 7, ""score"": 36.9, ""trial_index"": 14, ""internal_node_id"": ""0.0-1.0-6.0"", ""clickTimes"": [658, 872, 1159, 1433, 2057, 2593, 3143, 4026, 4382, 4684], ""path"": [1, 3, 7, 12], ""trialID"": 6, ""clicks"": [""5"", ""4"", ""3"", ""2"", ""7"", ""12"", ""13"", ""8"", ""14"", ""15""], ""condition"": 2}"
A2WC2NO555XU3J:33M4IA01QG16R2JL8VQD2RQIW7YRXY,15,1495050102898,"{""rt"": [8158, 3756, 1784], ""trial_type"": ""graph"", ""infoCost"": 0.01, ""feedback"": true, ""minTime"": 45, ""delays"": [-53, 1, 1], ""actionTimes"": [8159, 12862, 16437], ""time_elapsed"": 1075035, ""actions"": [""down"", ""down"", ""right""], ""trialIndex"": 8, ""score"": 41.9, ""trial_index"": 15, ""internal_node_id"": ""0.0-1.0-7.0"", ""clickTimes"": [811, 1051, 1355, 2150, 2567, 3068, 3670, 5316, 5958, 6430], ""path"": [1, 5, 9, 17], ""trialID"": 4, ""clicks"": [""2"", ""5"", ""4"", ""3"", ""8"", ""14"", ""15"", ""9"", ""16"", ""17""], ""condition"": 2}"
A2WC2NO555XU3J:33M4IA01QG16R2JL8VQD2RQIW7YRXY,16,1495050110396,"{""rt"": 6479, ""trial_type"": ""button-response"", ""button_pressed"": 0, ""stimulus"": ""<h1 id=\""thiscompletesthehit\"">This completes the HIT</h1>\n\n<p>One or your trials has been randomly selected and we will pay you 5% of your profit on that trial as a bonus. You will be awarded a bonus of $2.29</p>"", ""internal_node_id"": ""0.0-2.0"", ""time_elapsed"": 1082533, ""trial_index"": 16}"
AYH6G17Q8FY3B:3QEMNNSB2XZIBDUP8HRV33WQFDSD7J,0,1495052583785,"{""rt"": 97108, ""trial_type"": ""instructions"", ""view_history"": ""[{\""page_index\"":0,\""viewing_time\"":51505},{\""page_index\"":1,\""viewing_time\"":26051},{\""page_index\"":2,\""viewing_time\"":19551}]"", ""internal_node_id"": ""0.0-0.0-0.0"", ""time_elapsed"": 97108, ""trial_index"": 0}"
AYH6G17Q8FY3B:3QEMNNSB2XZIBDUP8HRV33WQFDSD7J,1,1495052609340,"{""rt"": 22274, ""trial_type"": ""survey-multi-choice"", ""responses"": ""[\""1\"",\""True\"",\""$2.80\"",\""As many or as few as I wish\"",\""5% of my score on a random round\""]"", ""internal_node_id"": ""0.0-0.0-1.0"", ""time_elapsed"": 122664, ""questions"": ""[\""How many flights are there per round?\"",\""True or false: The hidden values will change each time I start a new round.\"",\""How much does it cost to observe each hidden value?\"",\""How many hidden values am I allowed to observe in each round?\"",\""How is your bonus determined?\""]"", ""correct"": [false, true, true, true, true], ""trial_index"": 1}"
AYH6G17Q8FY3B:3QEMNNSB2XZIBDUP8HRV33WQFDSD7J,2,1495052663404,"{""rt"": 53061, ""trial_type"": ""instructions"", ""view_history"": ""[{\""page_index\"":0,\""viewing_time\"":16698},{\""page_index\"":1,\""viewing_time\"":18774},{\""page_index\"":2,\""viewing_time\"":17589}]"", ""internal_node_id"": ""0.0-0.1-0.1"", ""time_elapsed"": 176727, ""trial_index"": 2}"
AYH6G17Q8FY3B:3QEMNNSB2XZIBDUP8HRV33WQFDSD7J,3,1495052681313,"{""rt"": 15329, ""trial_type"": ""survey-multi-choice"", ""responses"": ""[\""4\"",\""True\"",\""$2.80\"",\""As many or as few as I wish\"",\""5% of my score on a random round\""]"", ""internal_node_id"": ""0.0-0.1-1.1"", ""time_elapsed"": 194637, ""questions"": ""[\""How many flights are there per round?\"",\""True or false: The hidden values will change each time I start a new round.\"",\""How much does it cost to observe each hidden value?\"",\""How many hidden values am I allowed to observe in each round?\"",\""How is your bonus determined?\""]"", ""correct"": [false, true, true, true, true], ""trial_index"": 3}"
AYH6G17Q8FY3B:3QEMNNSB2XZIBDUP8HRV33WQFDSD7J,4,1495052756680,"{""rt"": 74365, ""trial_type"": ""instructions"", ""view_history"": ""[{\""page_index\"":0,\""viewing_time\"":67181},{\""page_index\"":1,\""viewing_time\"":5787},{\""page_index\"":2,\""viewing_time\"":1396}]"", ""internal_node_id"": ""0.0-0.2-0.2"", ""time_elapsed"": 270004, ""trial_index"": 4}"
AYH6G17Q8FY3B:3QEMNNSB2XZIBDUP8HRV33WQFDSD7J,5,1495052770780,"{""rt"": 13073, ""trial_type"": ""survey-multi-choice"", ""responses"": ""[\""3\"",\""True\"",\""$2.80\"",\""As many or as few as I wish\"",\""5% of my score on a random round\""]"", ""internal_node_id"": ""0.0-0.2-1.2"", ""time_elapsed"": 284104, ""questions"": ""[\""How many flights are there per round?\"",\""True or false: The hidden values will change each time I start a new round.\"",\""How much does it cost to observe each hidden value?\"",\""How many hidden values am I allowed to observe in each round?\"",\""How is your bonus determined?\""]"", ""correct"": [true, true, true, true, true], ""trial_index"": 5}"
AYH6G17Q8FY3B:3QEMNNSB2XZIBDUP8HRV33WQFDSD7J,6,1495052846361,"{""rt"": [21748, 2759, 4683], ""trial_type"": ""graph"", ""infoCost"": 2.8, ""feedback"": true, ""minTime"": 45, ""delays"": [8, 0, 1], ""actionTimes"": [21748, 33435, 39092], ""time_elapsed"": 359685, ""actions"": [""down"", ""down"", ""left""], ""trialIndex"": 1, ""score"": 16, ""trial_index"": 6, ""internal_node_id"": ""0.0-1.0-0.0"", ""clickTimes"": [], ""path"": [1, 5, 9, 16], ""trialID"": 5, ""clicks"": [], ""condition"": 6}"
AYH6G17Q8FY3B:3QEMNNSB2XZIBDUP8HRV33WQFDSD7J,7,1495052924787,"{""rt"": [2068, 3185, 37041], ""trial_type"": ""graph"", ""infoCost"": 2.8, ""feedback"": true, ""minTime"": 45, ""delays"": [8, 0, 1], ""actionTimes"": [2068, 14168, 52112], ""time_elapsed"": 438111, ""actions"": [""up"", ""up"", ""right""], ""trialIndex"": 2, ""score"": 21, ""trial_index"": 7, ""internal_node_id"": ""0.0-1.0-1.0"", ""clickTimes"": [], ""path"": [1, 3, 7, 13], ""trialID"": 1, ""clicks"": [], ""condition"": 6}"
AYH6G17Q8FY3B:3QEMNNSB2XZIBDUP8HRV33WQFDSD7J,8,1495052993394,"{""rt"": [2859, 1231, 1716], ""trial_type"": ""graph"", ""infoCost"": 2.8, ""feedback"": true, ""minTime"": 45, ""delays"": [8, 0, 1], ""actionTimes"": [2859, 12944, 15504], ""time_elapsed"": 506718, ""actions"": [""left"", ""left"", ""up""], ""trialIndex"": 3, ""score"": 18, ""trial_index"": 8, ""internal_node_id"": ""0.0-1.0-2.0"", ""clickTimes"": [], ""path"": [1, 4, 8, 14], ""trialID"": 7, ""clicks"": [], ""condition"": 6}"
AYH6G17Q8FY3B:3QEMNNSB2XZIBDUP8HRV33WQFDSD7J,9,1495053073016,"{""rt"": [3213, 949, 9738], ""trial_type"": ""graph"", ""infoCost"": 2.8, ""feedback"": true, ""minTime"": 45, ""delays"": [8, 0, 1], ""actionTimes"": [3213, 13056, 23749], ""time_elapsed"": 586339, ""actions"": [""up"", ""up"", ""left""], ""trialIndex"": 4, ""score"": 37, ""trial_index"": 9, ""internal_node_id"": ""0.0-1.0-3.0"", ""clickTimes"": [], ""path"": [1, 3, 7, 12], ""trialID"": 6, ""clicks"": [], ""condition"": 6}"
AYH6G17Q8FY3B:3QEMNNSB2XZIBDUP8HRV33WQFDSD7J,10,1495053143810,"{""rt"": [3311, 629, 1991], ""trial_type"": ""graph"", ""infoCost"": 2.8, ""feedback"": true, ""minTime"": 45, ""delays"": [8, 0, 1], ""actionTimes"": [3311, 12825, 15690], ""time_elapsed"": 657133, ""actions"": [""right"", ""right"", ""down""], ""trialIndex"": 5, ""score"": 32, ""trial_index"": 10, ""internal_node_id"": ""0.0-1.0-4.0"", ""clickTimes"": [], ""path"": [1, 2, 6, 11], ""trialID"": 2, ""clicks"": [], ""condition"": 6}"
AYH6G17Q8FY3B:3QEMNNSB2XZIBDUP8HRV33WQFDSD7J,11,1495053218556,"{""rt"": [792, 381, 2248], ""trial_type"": ""graph"", ""infoCost"": 2.8, ""feedback"": true, ""minTime"": 45, ""delays"": [8, 0, 1], ""actionTimes"": [793, 10162, 13352], ""time_elapsed"": 731880, ""actions"": [""down"", ""down"", ""right""], ""trialIndex"": 6, ""score"": 0, ""trial_index"": 11, ""internal_node_id"": ""0.0-1.0-5.0"", ""clickTimes"": [], ""path"": [1, 5, 9, 17], ""trialID"": 3, ""clicks"": [], ""condition"": 6}"
AYH6G17Q8FY3B:3QEMNNSB2XZIBDUP8HRV33WQFDSD7J,12,1495053276582,"{""rt"": [3154, 1220, 1431], ""trial_type"": ""graph"", ""infoCost"": 2.8, ""feedback"": true, ""minTime"": 45, ""delays"": [8, 0, 1], ""actionTimes"": [3155, 13347, 15729], ""time_elapsed"": 789905, ""actions"": [""up"", ""up"", ""left""], ""trialIndex"": 7, ""score"": -3, ""trial_index"": 12, ""internal_node_id"": ""0.0-1.0-6.0"", ""clickTimes"": [], ""path"": [1, 3, 7, 12], ""trialID"": 0, ""clicks"": [], ""condition"": 6}"
AYH6G17Q8FY3B:3QEMNNSB2XZIBDUP8HRV33WQFDSD7J,13,1495053336032,"{""rt"": [14205, 1062, 998], ""trial_type"": ""graph"", ""infoCost"": 2.8, ""feedback"": true, ""minTime"": 45, ""delays"": [8, 0, 1], ""actionTimes"": [14207, 24145, 26285], ""time_elapsed"": 849355, ""actions"": [""down"", ""down"", ""right""], ""trialIndex"": 8, ""score"": 36.4, ""trial_index"": 13, ""internal_node_id"": ""0.0-1.0-7.0"", ""clickTimes"": [4683, 6726], ""path"": [1, 5, 9, 17], ""trialID"": 4, ""clicks"": [""16"", ""17""], ""condition"": 6}"
AYH6G17Q8FY3B:3QEMNNSB2XZIBDUP8HRV33WQFDSD7J,14,1495053340859,"{""rt"": 3812, ""trial_type"": ""button-response"", ""button_pressed"": 0, ""stimulus"": ""<h1 id=\""thiscompletesthehit\"">This completes the HIT</h1>\n\n<p>One or your trials has been randomly selected and we will pay you 5% of your profit on that trial as a bonus. You will be awarded a bonus of $1.05</p>"", ""internal_node_id"": ""0.0-2.0"", ""time_elapsed"": 854182, ""trial_index"": 14}"
