,correct,questions,responses,rt,time_elapsed,trial_type,worker_id,assignment_id,pid
1,"[False, True, True, True, False, True]","[""How many flights are there per round?"",""True or false: The hidden values will change each time I start a new round."",""How much does it cost to observe each hidden value?"",""How many hidden values am I allowed to observe in each round?"",""Which statement is TRUE?"",""What does the feedback teach me?""]","[""1"",""True"",""$0.10"",""As many or as few as I wish"",""My earnings for each round are equal to the <i>sum</i> of the values of all locations I visit (minus the cost of making observations), but these earnings aren't real money."",""All of the above.""]",78510,266237,survey-multi-choice,A10GJ2FOR16B2I,33NF62TLXJ2J9E11172FA6WPQTQKJZ,0
3,"[False, True, True, True, True, False]","[""How many flights are there per round?"",""True or false: The hidden values will change each time I start a new round."",""How much does it cost to observe each hidden value?"",""How many hidden values am I allowed to observe in each round?"",""Which statement is TRUE?"",""What does the feedback teach me?""]","[""1"",""True"",""$0.10"",""As many or as few as I wish"",""My earnings for each round are equal to the <i>sum</i> of the values of all locations I visit (minus the cost of making observations), and I will be paid the earnings from one of the 8 rounds."",""Whether I observed the rewards of relevant locations.""]",178471,516433,survey-multi-choice,A10GJ2FOR16B2I,33NF62TLXJ2J9E11172FA6WPQTQKJZ,0
5,"[False, True, True, True, False, True]","[""How many flights are there per round?"",""True or false: The hidden values will change each time I start a new round."",""How much does it cost to observe each hidden value?"",""How many hidden values am I allowed to observe in each round?"",""Which statement is TRUE?"",""What does the feedback teach me?""]","[""1"",""True"",""$0.10"",""As many or as few as I wish"",""My earnings for each round are equal to the value of one of the locations I visit (minus the cost of making observations), but these earnings aren't real money."",""All of the above.""]",74772,614003,survey-multi-choice,A10GJ2FOR16B2I,33NF62TLXJ2J9E11172FA6WPQTQKJZ,0
7,"[False, True, True, True, True, True]","[""How many flights are there per round?"",""True or false: The hidden values will change each time I start a new round."",""How much does it cost to observe each hidden value?"",""How many hidden values am I allowed to observe in each round?"",""Which statement is TRUE?"",""What does the feedback teach me?""]","[""1"",""True"",""$0.10"",""As many or as few as I wish"",""My earnings for each round are equal to the <i>sum</i> of the values of all locations I visit (minus the cost of making observations), and I will be paid the earnings from one of the 8 rounds."",""All of the above.""]",20106,644450,survey-multi-choice,A10GJ2FOR16B2I,33NF62TLXJ2J9E11172FA6WPQTQKJZ,0
9,"[True, True, True, True, True, True]","[""How many flights are there per round?"",""True or false: The hidden values will change each time I start a new round."",""How much does it cost to observe each hidden value?"",""How many hidden values am I allowed to observe in each round?"",""Which statement is TRUE?"",""What does the feedback teach me?""]","[""3"",""True"",""$0.10"",""As many or as few as I wish"",""My earnings for each round are equal to the <i>sum</i> of the values of all locations I visit (minus the cost of making observations), and I will be paid the earnings from one of the 8 rounds."",""All of the above.""]",45097,697965,survey-multi-choice,A10GJ2FOR16B2I,33NF62TLXJ2J9E11172FA6WPQTQKJZ,0
20,"[False, True, True, True, True, False]","[""How many flights are there per round?"",""True or false: The hidden values will change each time I start a new round."",""How much does it cost to observe each hidden value?"",""How many hidden values am I allowed to observe in each round?"",""Which statement is TRUE?"",""What does the feedback teach me?""]","[""1"",""True"",""$0.10"",""As many or as few as I wish"",""My earnings for each round are equal to the <i>sum</i> of the values of all locations I visit (minus the cost of making observations), and I will be paid the earnings from one of the 8 rounds."",""Whether I chose the move that was best according to the information I had.""]",198375,307149,survey-multi-choice,A10VLJT7V96D9W,32M8BPYGATMICHLCTYW00DPW6XQGIM,1
22,"[False, True, True, True, True, True]","[""How many flights are there per round?"",""True or false: The hidden values will change each time I start a new round."",""How much does it cost to observe each hidden value?"",""How many hidden values am I allowed to observe in each round?"",""Which statement is TRUE?"",""What does the feedback teach me?""]","[""2"",""True"",""$0.10"",""As many or as few as I wish"",""My earnings for each round are equal to the <i>sum</i> of the values of all locations I visit (minus the cost of making observations), and I will be paid the earnings from one of the 8 rounds."",""All of the above.""]",36398,449155,survey-multi-choice,A10VLJT7V96D9W,32M8BPYGATMICHLCTYW00DPW6XQGIM,1
24,"[False, True, True, True, True, False]","[""How many flights are there per round?"",""True or false: The hidden values will change each time I start a new round."",""How much does it cost to observe each hidden value?"",""How many hidden values am I allowed to observe in each round?"",""Which statement is TRUE?"",""What does the feedback teach me?""]","[""2"",""True"",""$0.10"",""As many or as few as I wish"",""My earnings for each round are equal to the <i>sum</i> of the values of all locations I visit (minus the cost of making observations), and I will be paid the earnings from one of the 8 rounds."",""Whether I chose the move that was best according to the information I had.""]",33525,494579,survey-multi-choice,A10VLJT7V96D9W,32M8BPYGATMICHLCTYW00DPW6XQGIM,1
26,"[False, True, True, True, True, True]","[""How many flights are there per round?"",""True or false: The hidden values will change each time I start a new round."",""How much does it cost to observe each hidden value?"",""How many hidden values am I allowed to observe in each round?"",""Which statement is TRUE?"",""What does the feedback teach me?""]","[""2"",""True"",""$0.10"",""As many or as few as I wish"",""My earnings for each round are equal to the <i>sum</i> of the values of all locations I visit (minus the cost of making observations), and I will be paid the earnings from one of the 8 rounds."",""All of the above.""]",86231,591548,survey-multi-choice,A10VLJT7V96D9W,32M8BPYGATMICHLCTYW00DPW6XQGIM,1
28,"[False, True, True, True, True, True]","[""How many flights are there per round?"",""True or false: The hidden values will change each time I start a new round."",""How much does it cost to observe each hidden value?"",""How many hidden values am I allowed to observe in each round?"",""Which statement is TRUE?"",""What does the feedback teach me?""]","[""2"",""True"",""$0.10"",""As many or as few as I wish"",""My earnings for each round are equal to the <i>sum</i> of the values of all locations I visit (minus the cost of making observations), and I will be paid the earnings from one of the 8 rounds."",""All of the above.""]",78978,683700,survey-multi-choice,A10VLJT7V96D9W,32M8BPYGATMICHLCTYW00DPW6XQGIM,1
30,"[False, True, True, True, False, True]","[""How many flights are there per round?"",""True or false: The hidden values will change each time I start a new round."",""How much does it cost to observe each hidden value?"",""How many hidden values am I allowed to observe in each round?"",""Which statement is TRUE?"",""What does the feedback teach me?""]","[""2"",""True"",""$0.10"",""As many or as few as I wish"",""My earnings for each round are equal to the <i>sum</i> of the values of all locations I visit (minus the cost of making observations), but these earnings aren't real money."",""All of the above.""]",105652,800732,survey-multi-choice,A10VLJT7V96D9W,32M8BPYGATMICHLCTYW00DPW6XQGIM,1
32,"[True, True, True, True, True, True]","[""How many flights are there per round?"",""True or false: The hidden values will change each time I start a new round."",""How much does it cost to observe each hidden value?"",""How many hidden values am I allowed to observe in each round?"",""Which statement is TRUE?"",""What does the feedback teach me?""]","[""3"",""True"",""$0.10"",""As many or as few as I wish"",""My earnings for each round are equal to the <i>sum</i> of the values of all locations I visit (minus the cost of making observations), and I will be paid the earnings from one of the 8 rounds."",""All of the above.""]",37746,854689,survey-multi-choice,A10VLJT7V96D9W,32M8BPYGATMICHLCTYW00DPW6XQGIM,1
43,"[False, True, True, True, False, False]","[""How many flights are there per round?"",""True or false: The hidden values will change each time I start a new round."",""How much does it cost to observe each hidden value?"",""How many hidden values am I allowed to observe in each round?"",""Which statement is TRUE?"",""True of false: The duration of the delay tells me how much more money I could have earned by planning and deciding better.""]","[""1"",""True"",""$0.10"",""As many or as few as I wish"",""My earnings for each round are equal to the value of one of the locations I visit (minus the cost of making observations), but these earnings aren't real money."",""False""]",54583,257576,survey-multi-choice,A110JBKYAC0WAW,37C0GNLMHF3Z7DGKP7M3XPWUJYWD6Z,2
45,"[True, True, True, True, True, False]","[""How many flights are there per round?"",""True or false: The hidden values will change each time I start a new round."",""How much does it cost to observe each hidden value?"",""How many hidden values am I allowed to observe in each round?"",""Which statement is TRUE?"",""True of false: The duration of the delay tells me how much more money I could have earned by planning and deciding better.""]","[""3"",""True"",""$0.10"",""As many or as few as I wish"",""My earnings for each round are equal to the <i>sum</i> of the values of all locations I visit (minus the cost of making observations), and I will be paid the earnings from one of the 8 rounds."",""False""]",42795,388656,survey-multi-choice,A110JBKYAC0WAW,37C0GNLMHF3Z7DGKP7M3XPWUJYWD6Z,2
47,"[False, True, True, True, True, True]","[""How many flights are there per round?"",""True or false: The hidden values will change each time I start a new round."",""How much does it cost to observe each hidden value?"",""How many hidden values am I allowed to observe in each round?"",""Which statement is TRUE?"",""True of false: The duration of the delay tells me how much more money I could have earned by planning and deciding better.""]","[""1"",""True"",""$0.10"",""As many or as few as I wish"",""My earnings for each round are equal to the <i>sum</i> of the values of all locations I visit (minus the cost of making observations), and I will be paid the earnings from one of the 8 rounds."",""True""]",26820,438800,survey-multi-choice,A110JBKYAC0WAW,37C0GNLMHF3Z7DGKP7M3XPWUJYWD6Z,2
49,"[True, True, True, True, True, False]","[""How many flights are there per round?"",""True or false: The hidden values will change each time I start a new round."",""How much does it cost to observe each hidden value?"",""How many hidden values am I allowed to observe in each round?"",""Which statement is TRUE?"",""True of false: The duration of the delay tells me how much more money I could have earned by planning and deciding better.""]","[""3"",""True"",""$0.10"",""As many or as few as I wish"",""My earnings for each round are equal to the <i>sum</i> of the values of all locations I visit (minus the cost of making observations), and I will be paid the earnings from one of the 8 rounds."",""False""]",18239,488503,survey-multi-choice,A110JBKYAC0WAW,37C0GNLMHF3Z7DGKP7M3XPWUJYWD6Z,2
51,"[False, True, True, True, True, True]","[""How many flights are there per round?"",""True or false: The hidden values will change each time I start a new round."",""How much does it cost to observe each hidden value?"",""How many hidden values am I allowed to observe in each round?"",""Which statement is TRUE?"",""True of false: The duration of the delay tells me how much more money I could have earned by planning and deciding better.""]","[""1"",""True"",""$0.10"",""As many or as few as I wish"",""My earnings for each round are equal to the <i>sum</i> of the values of all locations I visit (minus the cost of making observations), and I will be paid the earnings from one of the 8 rounds."",""True""]",23311,519959,survey-multi-choice,A110JBKYAC0WAW,37C0GNLMHF3Z7DGKP7M3XPWUJYWD6Z,2
53,"[True, True, True, True, True, True]","[""How many flights are there per round?"",""True or false: The hidden values will change each time I start a new round."",""How much does it cost to observe each hidden value?"",""How many hidden values am I allowed to observe in each round?"",""Which statement is TRUE?"",""True of false: The duration of the delay tells me how much more money I could have earned by planning and deciding better.""]","[""3"",""True"",""$0.10"",""As many or as few as I wish"",""My earnings for each round are equal to the <i>sum</i> of the values of all locations I visit (minus the cost of making observations), and I will be paid the earnings from one of the 8 rounds."",""True""]",16060,546248,survey-multi-choice,A110JBKYAC0WAW,37C0GNLMHF3Z7DGKP7M3XPWUJYWD6Z,2
64,"[False, True, True, True, True, True]","[""How many flights are there per round?"",""True or false: The hidden values will change each time I start a new round."",""How much does it cost to observe each hidden value?"",""How many hidden values am I allowed to observe in each round?"",""Which statement is TRUE?"",""What does the feedback teach me?""]","[""2"",""True"",""$0.10"",""As many or as few as I wish"",""My earnings for each round are equal to the <i>sum</i> of the values of all locations I visit (minus the cost of making observations), and I will be paid the earnings from one of the 8 rounds."",""All of the above.""]",37589,173881,survey-multi-choice,A12R2U6TBB3OOG,3KWTYT08703MML4YX5AMOWQZWCN5LR,3
66,"[False, True, True, True, True, False]","[""How many flights are there per round?"",""True or false: The hidden values will change each time I start a new round."",""How much does it cost to observe each hidden value?"",""How many hidden values am I allowed to observe in each round?"",""Which statement is TRUE?"",""What does the feedback teach me?""]","[""2"",""True"",""$0.10"",""As many or as few as I wish"",""My earnings for each round are equal to the <i>sum</i> of the values of all locations I visit (minus the cost of making observations), and I will be paid the earnings from one of the 8 rounds."",""Whether I observed the rewards of relevant locations.""]",18932,202631,survey-multi-choice,A12R2U6TBB3OOG,3KWTYT08703MML4YX5AMOWQZWCN5LR,3
68,"[False, True, True, True, True, False]","[""How many flights are there per round?"",""True or false: The hidden values will change each time I start a new round."",""How much does it cost to observe each hidden value?"",""How many hidden values am I allowed to observe in each round?"",""Which statement is TRUE?"",""What does the feedback teach me?""]","[""2"",""True"",""$0.10"",""As many or as few as I wish"",""My earnings for each round are equal to the <i>sum</i> of the values of all locations I visit (minus the cost of making observations), and I will be paid the earnings from one of the 8 rounds."",""The duration of the delay tells me how much more money I could have earned by planning and deciding better.""]",8571,218061,survey-multi-choice,A12R2U6TBB3OOG,3KWTYT08703MML4YX5AMOWQZWCN5LR,3
70,"[False, True, True, True, True, True]","[""How many flights are there per round?"",""True or false: The hidden values will change each time I start a new round."",""How much does it cost to observe each hidden value?"",""How many hidden values am I allowed to observe in each round?"",""Which statement is TRUE?"",""What does the feedback teach me?""]","[""4"",""True"",""$0.10"",""As many or as few as I wish"",""My earnings for each round are equal to the <i>sum</i> of the values of all locations I visit (minus the cost of making observations), and I will be paid the earnings from one of the 8 rounds."",""All of the above.""]",8052,242304,survey-multi-choice,A12R2U6TBB3OOG,3KWTYT08703MML4YX5AMOWQZWCN5LR,3
72,"[True, True, True, True, True, True]","[""How many flights are there per round?"",""True or false: The hidden values will change each time I start a new round."",""How much does it cost to observe each hidden value?"",""How many hidden values am I allowed to observe in each round?"",""Which statement is TRUE?"",""What does the feedback teach me?""]","[""3"",""True"",""$0.10"",""As many or as few as I wish"",""My earnings for each round are equal to the <i>sum</i> of the values of all locations I visit (minus the cost of making observations), and I will be paid the earnings from one of the 8 rounds."",""All of the above.""]",6923,264188,survey-multi-choice,A12R2U6TBB3OOG,3KWTYT08703MML4YX5AMOWQZWCN5LR,3
83,"[False, True, True, True, True, False]","[""How many flights are there per round?"",""True or false: The hidden values will change each time I start a new round."",""How much does it cost to observe each hidden value?"",""How many hidden values am I allowed to observe in each round?"",""Which statement is TRUE?"",""What does the feedback teach me?""]","[""1"",""True"",""$0.10"",""As many or as few as I wish"",""My earnings for each round are equal to the <i>sum</i> of the values of all locations I visit (minus the cost of making observations), and I will be paid the earnings from one of the 8 rounds."",""Whether I chose the move that was best according to the information I had.""]",95585,263998,survey-multi-choice,A15XX0WDRG29E7,3H8DHMCCW9B66S19RBG4781CL9SDKD,4
85,"[False, True, True, True, False, False]","[""How many flights are there per round?"",""True or false: The hidden values will change each time I start a new round."",""How much does it cost to observe each hidden value?"",""How many hidden values am I allowed to observe in each round?"",""Which statement is TRUE?"",""What does the feedback teach me?""]","[""1"",""True"",""$0.10"",""As many or as few as I wish"",""My earnings for each round are equal to the value of one of the locations I visit (minus the cost of making observations), and I will actually be paid the earnings from one of the 8 rounds."",""The duration of the delay tells me how much more money I could have earned by planning and deciding better.""]",36464,361623,survey-multi-choice,A15XX0WDRG29E7,3H8DHMCCW9B66S19RBG4781CL9SDKD,4
87,"[False, True, True, True, False, True]","[""How many flights are there per round?"",""True or false: The hidden values will change each time I start a new round."",""How much does it cost to observe each hidden value?"",""How many hidden values am I allowed to observe in each round?"",""Which statement is TRUE?"",""What does the feedback teach me?""]","[""1"",""True"",""$0.10"",""As many or as few as I wish"",""My earnings for each round are equal to the value of one of the locations I visit (minus the cost of making observations), and I will actually be paid the earnings from one of the 8 rounds."",""All of the above.""]",20155,401659,survey-multi-choice,A15XX0WDRG29E7,3H8DHMCCW9B66S19RBG4781CL9SDKD,4
89,"[False, True, True, True, False, False]","[""How many flights are there per round?"",""True or false: The hidden values will change each time I start a new round."",""How much does it cost to observe each hidden value?"",""How many hidden values am I allowed to observe in each round?"",""Which statement is TRUE?"",""What does the feedback teach me?""]","[""1"",""True"",""$0.10"",""As many or as few as I wish"",""My earnings for each round are equal to the value of one of the locations I visit (minus the cost of making observations), and I will actually be paid the earnings from one of the 8 rounds."",""The duration of the delay tells me how much more money I could have earned by planning and deciding better.""]",47853,531600,survey-multi-choice,A15XX0WDRG29E7,3H8DHMCCW9B66S19RBG4781CL9SDKD,4
91,"[False, True, True, True, True, True]","[""How many flights are there per round?"",""True or false: The hidden values will change each time I start a new round."",""How much does it cost to observe each hidden value?"",""How many hidden values am I allowed to observe in each round?"",""Which statement is TRUE?"",""What does the feedback teach me?""]","[""1"",""True"",""$0.10"",""As many or as few as I wish"",""My earnings for each round are equal to the <i>sum</i> of the values of all locations I visit (minus the cost of making observations), and I will be paid the earnings from one of the 8 rounds."",""All of the above.""]",81625,713717,survey-multi-choice,A15XX0WDRG29E7,3H8DHMCCW9B66S19RBG4781CL9SDKD,4
93,"[False, True, True, True, False, False]","[""How many flights are there per round?"",""True or false: The hidden values will change each time I start a new round."",""How much does it cost to observe each hidden value?"",""How many hidden values am I allowed to observe in each round?"",""Which statement is TRUE?"",""What does the feedback teach me?""]","[""1"",""True"",""$0.10"",""As many or as few as I wish"",""My earnings for each round are equal to the value of one of the locations I visit (minus the cost of making observations), and I will actually be paid the earnings from one of the 8 rounds."",""Whether I chose the move that was best according to the information I had.""]",46921,781857,survey-multi-choice,A15XX0WDRG29E7,3H8DHMCCW9B66S19RBG4781CL9SDKD,4
95,"[False, True, True, True, True, True]","[""How many flights are there per round?"",""True or false: The hidden values will change each time I start a new round."",""How much does it cost to observe each hidden value?"",""How many hidden values am I allowed to observe in each round?"",""Which statement is TRUE?"",""What does the feedback teach me?""]","[""1"",""True"",""$0.10"",""As many or as few as I wish"",""My earnings for each round are equal to the <i>sum</i> of the values of all locations I visit (minus the cost of making observations), and I will be paid the earnings from one of the 8 rounds."",""All of the above.""]",32076,914264,survey-multi-choice,A15XX0WDRG29E7,3H8DHMCCW9B66S19RBG4781CL9SDKD,4
97,"[False, True, True, True, True, False]","[""How many flights are there per round?"",""True or false: The hidden values will change each time I start a new round."",""How much does it cost to observe each hidden value?"",""How many hidden values am I allowed to observe in each round?"",""Which statement is TRUE?"",""What does the feedback teach me?""]","[""1"",""True"",""$0.10"",""As many or as few as I wish"",""My earnings for each round are equal to the <i>sum</i> of the values of all locations I visit (minus the cost of making observations), and I will be paid the earnings from one of the 8 rounds."",""The duration of the delay tells me how much more money I could have earned by planning and deciding better.""]",23964,953074,survey-multi-choice,A15XX0WDRG29E7,3H8DHMCCW9B66S19RBG4781CL9SDKD,4
99,"[True, True, True, True, True, True]","[""How many flights are there per round?"",""True or false: The hidden values will change each time I start a new round."",""How much does it cost to observe each hidden value?"",""How many hidden values am I allowed to observe in each round?"",""Which statement is TRUE?"",""What does the feedback teach me?""]","[""3"",""True"",""$0.10"",""As many or as few as I wish"",""My earnings for each round are equal to the <i>sum</i> of the values of all locations I visit (minus the cost of making observations), and I will be paid the earnings from one of the 8 rounds."",""All of the above.""]",290132,1401033,survey-multi-choice,A15XX0WDRG29E7,3H8DHMCCW9B66S19RBG4781CL9SDKD,4
110,"[False, True, True, True, True, True]","[""How many flights are there per round?"",""True or false: The hidden values will change each time I start a new round."",""How much does it cost to observe each hidden value?"",""How many hidden values am I allowed to observe in each round?"",""Which statement is TRUE?"",""What does the feedback teach me?""]","[""2"",""True"",""$0.10"",""As many or as few as I wish"",""My earnings for each round are equal to the <i>sum</i> of the values of all locations I visit (minus the cost of making observations), and I will be paid the earnings from one of the 8 rounds."",""All of the above.""]",62198,321721,survey-multi-choice,A16ANYLVNPKCVG,3URFVVM165INCPBHD7934NTDA2NZUL,5
112,"[True, True, True, True, True, True]","[""How many flights are there per round?"",""True or false: The hidden values will change each time I start a new round."",""How much does it cost to observe each hidden value?"",""How many hidden values am I allowed to observe in each round?"",""Which statement is TRUE?"",""What does the feedback teach me?""]","[""3"",""True"",""$0.10"",""As many or as few as I wish"",""My earnings for each round are equal to the <i>sum</i> of the values of all locations I visit (minus the cost of making observations), and I will be paid the earnings from one of the 8 rounds."",""All of the above.""]",48526,429277,survey-multi-choice,A16ANYLVNPKCVG,3URFVVM165INCPBHD7934NTDA2NZUL,5
123,"[True, True, True, True, True]","[""How many flights are there per round?"",""True or false: The hidden values will change each time I start a new round."",""How much does it cost to observe each hidden value?"",""How many hidden values am I allowed to observe in each round?"",""Which statement is TRUE?""]","[""3"",""True"",""$0.10"",""As many or as few as I wish"",""My earnings for each round are equal to the <i>sum</i> of the values of all locations I visit (minus the cost of making observations), and I will be paid the earnings from one of the 8 rounds.""]",53416,165239,survey-multi-choice,A16BLPK5DB2XGM,3OJSZ2ATDSWN70FWTB9C5R8Y28Z57W,6
134,"[False, True, True, True, True, True]","[""How many flights are there per round?"",""True or false: The hidden values will change each time I start a new round."",""How much does it cost to observe each hidden value?"",""How many hidden values am I allowed to observe in each round?"",""Which statement is TRUE?"",""True of false: The duration of the delay tells me how much more money I could have earned by planning and deciding better.""]","[""1"",""True"",""$0.10"",""As many or as few as I wish"",""My earnings for each round are equal to the <i>sum</i> of the values of all locations I visit (minus the cost of making observations), and I will be paid the earnings from one of the 8 rounds."",""True""]",46780,229881,survey-multi-choice,A16SJ5D3DKUEXJ,3VBEN272MKZ76VO8YAQE4FVJFVSGSE,7
136,"[False, True, True, True, False, True]","[""How many flights are there per round?"",""True or false: The hidden values will change each time I start a new round."",""How much does it cost to observe each hidden value?"",""How many hidden values am I allowed to observe in each round?"",""Which statement is TRUE?"",""True of false: The duration of the delay tells me how much more money I could have earned by planning and deciding better.""]","[""1"",""True"",""$0.10"",""As many or as few as I wish"",""My earnings for each round are equal to the value of one of the locations I visit (minus the cost of making observations), and I will actually be paid the earnings from one of the 8 rounds."",""True""]",74288,373943,survey-multi-choice,A16SJ5D3DKUEXJ,3VBEN272MKZ76VO8YAQE4FVJFVSGSE,7
138,"[False, True, True, True, True, True]","[""How many flights are there per round?"",""True or false: The hidden values will change each time I start a new round."",""How much does it cost to observe each hidden value?"",""How many hidden values am I allowed to observe in each round?"",""Which statement is TRUE?"",""True of false: The duration of the delay tells me how much more money I could have earned by planning and deciding better.""]","[""1"",""True"",""$0.10"",""As many or as few as I wish"",""My earnings for each round are equal to the <i>sum</i> of the values of all locations I visit (minus the cost of making observations), and I will be paid the earnings from one of the 8 rounds."",""True""]",74859,604318,survey-multi-choice,A16SJ5D3DKUEXJ,3VBEN272MKZ76VO8YAQE4FVJFVSGSE,7
140,"[False, True, True, True, False, True]","[""How many flights are there per round?"",""True or false: The hidden values will change each time I start a new round."",""How much does it cost to observe each hidden value?"",""How many hidden values am I allowed to observe in each round?"",""Which statement is TRUE?"",""True of false: The duration of the delay tells me how much more money I could have earned by planning and deciding better.""]","[""1"",""True"",""$0.10"",""As many or as few as I wish"",""My earnings for each round are equal to the <i>sum</i> of the values of all locations I visit (minus the cost of making observations), but these earnings aren't real money."",""True""]",12500,624161,survey-multi-choice,A16SJ5D3DKUEXJ,3VBEN272MKZ76VO8YAQE4FVJFVSGSE,7
142,"[True, True, True, True, True, True]","[""How many flights are there per round?"",""True or false: The hidden values will change each time I start a new round."",""How much does it cost to observe each hidden value?"",""How many hidden values am I allowed to observe in each round?"",""Which statement is TRUE?"",""True of false: The duration of the delay tells me how much more money I could have earned by planning and deciding better.""]","[""3"",""True"",""$0.10"",""As many or as few as I wish"",""My earnings for each round are equal to the <i>sum</i> of the values of all locations I visit (minus the cost of making observations), and I will be paid the earnings from one of the 8 rounds."",""True""]",19607,650549,survey-multi-choice,A16SJ5D3DKUEXJ,3VBEN272MKZ76VO8YAQE4FVJFVSGSE,7
153,"[False, True, True, True, False, True]","[""How many flights are there per round?"",""True or false: The hidden values will change each time I start a new round."",""How much does it cost to observe each hidden value?"",""How many hidden values am I allowed to observe in each round?"",""Which statement is TRUE?"",""What does the feedback teach me?""]","[""1"",""True"",""$0.10"",""As many or as few as I wish"",""My earnings for each round are equal to the value of one of the locations I visit (minus the cost of making observations), but these earnings aren't real money."",""All of the above.""]",65626,437836,survey-multi-choice,A1743ZO14I4NFO,33SA9F9TRXU2TY9QCKAR11DS8S2WEL,8
155,"[True, True, True, True, True, True]","[""How many flights are there per round?"",""True or false: The hidden values will change each time I start a new round."",""How much does it cost to observe each hidden value?"",""How many hidden values am I allowed to observe in each round?"",""Which statement is TRUE?"",""What does the feedback teach me?""]","[""3"",""True"",""$0.10"",""As many or as few as I wish"",""My earnings for each round are equal to the <i>sum</i> of the values of all locations I visit (minus the cost of making observations), and I will be paid the earnings from one of the 8 rounds."",""All of the above.""]",72885,614678,survey-multi-choice,A1743ZO14I4NFO,33SA9F9TRXU2TY9QCKAR11DS8S2WEL,8
166,"[True, True, True, True, False, False]","[""How many flights are there per round?"",""True or false: The hidden values will change each time I start a new round."",""How much does it cost to observe each hidden value?"",""How many hidden values am I allowed to observe in each round?"",""Which statement is TRUE?"",""True of false: The duration of the delay tells me how much more money I could have earned by planning and deciding better.""]","[""3"",""True"",""$0.10"",""As many or as few as I wish"",""My earnings for each round are equal to the value of one of the locations I visit (minus the cost of making observations), and I will actually be paid the earnings from one of the 8 rounds."",""False""]",31880,39679,survey-multi-choice,A18U9WMYFYJPR6,3ZSANO2JCF71SVSDNQKWMUV7EGLSFK,9
168,"[True, True, True, True, True, True]","[""How many flights are there per round?"",""True or false: The hidden values will change each time I start a new round."",""How much does it cost to observe each hidden value?"",""How many hidden values am I allowed to observe in each round?"",""Which statement is TRUE?"",""True of false: The duration of the delay tells me how much more money I could have earned by planning and deciding better.""]","[""3"",""True"",""$0.10"",""As many or as few as I wish"",""My earnings for each round are equal to the <i>sum</i> of the values of all locations I visit (minus the cost of making observations), and I will be paid the earnings from one of the 8 rounds."",""True""]",13140,58256,survey-multi-choice,A18U9WMYFYJPR6,3ZSANO2JCF71SVSDNQKWMUV7EGLSFK,9
179,"[False, True, False, True, True, True]","[""How many flights are there per round?"",""True or false: The hidden values will change each time I start a new round."",""How much does it cost to observe each hidden value?"",""How many hidden values am I allowed to observe in each round?"",""Which statement is TRUE?"",""What does the feedback teach me?""]","[""1"",""True"",""$0.25"",""As many or as few as I wish"",""My earnings for each round are equal to the <i>sum</i> of the values of all locations I visit (minus the cost of making observations), and I will be paid the earnings from one of the 8 rounds."",""All of the above.""]",133115,292204,survey-multi-choice,A19134KP9PBNXT,3HL8HNGX451JNGWEEKK55ZQHLCKF9N,10
181,"[False, True, False, True, True, True]","[""How many flights are there per round?"",""True or false: The hidden values will change each time I start a new round."",""How much does it cost to observe each hidden value?"",""How many hidden values am I allowed to observe in each round?"",""Which statement is TRUE?"",""What does the feedback teach me?""]","[""2"",""True"",""$0.00"",""As many or as few as I wish"",""My earnings for each round are equal to the <i>sum</i> of the values of all locations I visit (minus the cost of making observations), and I will be paid the earnings from one of the 8 rounds."",""All of the above.""]",39862,393227,survey-multi-choice,A19134KP9PBNXT,3HL8HNGX451JNGWEEKK55ZQHLCKF9N,10
183,"[False, True, False, True, False, True]","[""How many flights are there per round?"",""True or false: The hidden values will change each time I start a new round."",""How much does it cost to observe each hidden value?"",""How many hidden values am I allowed to observe in each round?"",""Which statement is TRUE?"",""What does the feedback teach me?""]","[""2"",""True"",""$0.00"",""As many or as few as I wish"",""My earnings for each round are equal to the value of one of the locations I visit (minus the cost of making observations), and I will actually be paid the earnings from one of the 8 rounds."",""All of the above.""]",47594,505259,survey-multi-choice,A19134KP9PBNXT,3HL8HNGX451JNGWEEKK55ZQHLCKF9N,10
185,"[False, True, True, True, False, True]","[""How many flights are there per round?"",""True or false: The hidden values will change each time I start a new round."",""How much does it cost to observe each hidden value?"",""How many hidden values am I allowed to observe in each round?"",""Which statement is TRUE?"",""What does the feedback teach me?""]","[""2"",""True"",""$0.10"",""As many or as few as I wish"",""My earnings for each round are equal to the value of one of the locations I visit (minus the cost of making observations), and I will actually be paid the earnings from one of the 8 rounds."",""All of the above.""]",17459,547619,survey-multi-choice,A19134KP9PBNXT,3HL8HNGX451JNGWEEKK55ZQHLCKF9N,10
187,"[False, True, True, True, True, True]","[""How many flights are there per round?"",""True or false: The hidden values will change each time I start a new round."",""How much does it cost to observe each hidden value?"",""How many hidden values am I allowed to observe in each round?"",""Which statement is TRUE?"",""What does the feedback teach me?""]","[""2"",""True"",""$0.10"",""As many or as few as I wish"",""My earnings for each round are equal to the <i>sum</i> of the values of all locations I visit (minus the cost of making observations), and I will be paid the earnings from one of the 8 rounds."",""All of the above.""]",19500,580475,survey-multi-choice,A19134KP9PBNXT,3HL8HNGX451JNGWEEKK55ZQHLCKF9N,10
189,"[False, True, True, True, False, True]","[""How many flights are there per round?"",""True or false: The hidden values will change each time I start a new round."",""How much does it cost to observe each hidden value?"",""How many hidden values am I allowed to observe in each round?"",""Which statement is TRUE?"",""What does the feedback teach me?""]","[""2"",""True"",""$0.10"",""As many or as few as I wish"",""My earnings for each round are equal to the value of one of the locations I visit (minus the cost of making observations), and I will actually be paid the earnings from one of the 8 rounds."",""All of the above.""]",47942,688218,survey-multi-choice,A19134KP9PBNXT,3HL8HNGX451JNGWEEKK55ZQHLCKF9N,10
191,"[False, True, True, True, False, True]","[""How many flights are there per round?"",""True or false: The hidden values will change each time I start a new round."",""How much does it cost to observe each hidden value?"",""How many hidden values am I allowed to observe in each round?"",""Which statement is TRUE?"",""What does the feedback teach me?""]","[""2"",""True"",""$0.10"",""As many or as few as I wish"",""My earnings for each round are equal to the value of one of the locations I visit (minus the cost of making observations), and I will actually be paid the earnings from one of the 8 rounds."",""All of the above.""]",18316,789027,survey-multi-choice,A19134KP9PBNXT,3HL8HNGX451JNGWEEKK55ZQHLCKF9N,10
193,"[False, True, True, True, False, False]","[""How many flights are there per round?"",""True or false: The hidden values will change each time I start a new round."",""How much does it cost to observe each hidden value?"",""How many hidden values am I allowed to observe in each round?"",""Which statement is TRUE?"",""What does the feedback teach me?""]","[""2"",""True"",""$0.10"",""As many or as few as I wish"",""My earnings for each round are equal to the value of one of the locations I visit (minus the cost of making observations), and I will actually be paid the earnings from one of the 8 rounds."",""Whether I chose the move that was best according to the information I had.""]",19453,816363,survey-multi-choice,A19134KP9PBNXT,3HL8HNGX451JNGWEEKK55ZQHLCKF9N,10
195,"[False, True, True, True, False, False]","[""How many flights are there per round?"",""True or false: The hidden values will change each time I start a new round."",""How much does it cost to observe each hidden value?"",""How many hidden values am I allowed to observe in each round?"",""Which statement is TRUE?"",""What does the feedback teach me?""]","[""2"",""True"",""$0.10"",""As many or as few as I wish"",""My earnings for each round are equal to the value of one of the locations I visit (minus the cost of making observations), and I will actually be paid the earnings from one of the 8 rounds."",""Whether I observed the rewards of relevant locations.""]",39464,902844,survey-multi-choice,A19134KP9PBNXT,3HL8HNGX451JNGWEEKK55ZQHLCKF9N,10
197,"[False, True, True, True, True, True]","[""How many flights are there per round?"",""True or false: The hidden values will change each time I start a new round."",""How much does it cost to observe each hidden value?"",""How many hidden values am I allowed to observe in each round?"",""Which statement is TRUE?"",""What does the feedback teach me?""]","[""1"",""True"",""$0.10"",""As many or as few as I wish"",""My earnings for each round are equal to the <i>sum</i> of the values of all locations I visit (minus the cost of making observations), and I will be paid the earnings from one of the 8 rounds."",""All of the above.""]",24275,1005396,survey-multi-choice,A19134KP9PBNXT,3HL8HNGX451JNGWEEKK55ZQHLCKF9N,10
199,"[False, True, True, True, False, True]","[""How many flights are there per round?"",""True or false: The hidden values will change each time I start a new round."",""How much does it cost to observe each hidden value?"",""How many hidden values am I allowed to observe in each round?"",""Which statement is TRUE?"",""What does the feedback teach me?""]","[""1"",""True"",""$0.10"",""As many or as few as I wish"",""My earnings for each round are equal to the value of one of the locations I visit (minus the cost of making observations), and I will actually be paid the earnings from one of the 8 rounds."",""All of the above.""]",12045,1025052,survey-multi-choice,A19134KP9PBNXT,3HL8HNGX451JNGWEEKK55ZQHLCKF9N,10
201,"[True, True, True, True, False, True]","[""How many flights are there per round?"",""True or false: The hidden values will change each time I start a new round."",""How much does it cost to observe each hidden value?"",""How many hidden values am I allowed to observe in each round?"",""Which statement is TRUE?"",""What does the feedback teach me?""]","[""3"",""True"",""$0.10"",""As many or as few as I wish"",""My earnings for each round are equal to the value of one of the locations I visit (minus the cost of making observations), and I will actually be paid the earnings from one of the 8 rounds."",""All of the above.""]",10679,1042324,survey-multi-choice,A19134KP9PBNXT,3HL8HNGX451JNGWEEKK55ZQHLCKF9N,10
203,"[False, True, True, True, True, True]","[""How many flights are there per round?"",""True or false: The hidden values will change each time I start a new round."",""How much does it cost to observe each hidden value?"",""How many hidden values am I allowed to observe in each round?"",""Which statement is TRUE?"",""What does the feedback teach me?""]","[""1"",""True"",""$0.10"",""As many or as few as I wish"",""My earnings for each round are equal to the <i>sum</i> of the values of all locations I visit (minus the cost of making observations), and I will be paid the earnings from one of the 8 rounds."",""All of the above.""]",26278,1076466,survey-multi-choice,A19134KP9PBNXT,3HL8HNGX451JNGWEEKK55ZQHLCKF9N,10
205,"[True, True, True, True, True, True]","[""How many flights are there per round?"",""True or false: The hidden values will change each time I start a new round."",""How much does it cost to observe each hidden value?"",""How many hidden values am I allowed to observe in each round?"",""Which statement is TRUE?"",""What does the feedback teach me?""]","[""3"",""True"",""$0.10"",""As many or as few as I wish"",""My earnings for each round are equal to the <i>sum</i> of the values of all locations I visit (minus the cost of making observations), and I will be paid the earnings from one of the 8 rounds."",""All of the above.""]",8536,1121376,survey-multi-choice,A19134KP9PBNXT,3HL8HNGX451JNGWEEKK55ZQHLCKF9N,10
216,"[False, True, False, False, False, False]","[""How many flights are there per round?"",""True or false: The hidden values will change each time I start a new round."",""How much does it cost to observe each hidden value?"",""How many hidden values am I allowed to observe in each round?"",""Which statement is TRUE?"",""What does the feedback teach me?""]","[""4"",""True"",""$0.50"",""At most 5"",""My earnings for each round are equal to the value of one of the locations I visit (minus the cost of making observations), but these earnings aren't real money."",""Whether I observed the rewards of relevant locations.""]",21419,38286,survey-multi-choice,A19C6T7B0H4PAQ,3QXNC7EIPIVSQCHOB21K2S3DGQ809E,11
218,"[False, True, True, True, True, True]","[""How many flights are there per round?"",""True or false: The hidden values will change each time I start a new round."",""How much does it cost to observe each hidden value?"",""How many hidden values am I allowed to observe in each round?"",""Which statement is TRUE?"",""What does the feedback teach me?""]","[""2"",""True"",""$0.10"",""As many or as few as I wish"",""My earnings for each round are equal to the <i>sum</i> of the values of all locations I visit (minus the cost of making observations), and I will be paid the earnings from one of the 8 rounds."",""All of the above.""]",27199,95251,survey-multi-choice,A19C6T7B0H4PAQ,3QXNC7EIPIVSQCHOB21K2S3DGQ809E,11
220,"[False, True, True, True, True, True]","[""How many flights are there per round?"",""True or false: The hidden values will change each time I start a new round."",""How much does it cost to observe each hidden value?"",""How many hidden values am I allowed to observe in each round?"",""Which statement is TRUE?"",""What does the feedback teach me?""]","[""2"",""True"",""$0.10"",""As many or as few as I wish"",""My earnings for each round are equal to the <i>sum</i> of the values of all locations I visit (minus the cost of making observations), and I will be paid the earnings from one of the 8 rounds."",""All of the above.""]",28362,146955,survey-multi-choice,A19C6T7B0H4PAQ,3QXNC7EIPIVSQCHOB21K2S3DGQ809E,11
222,"[False, True, True, True, True, True]","[""How many flights are there per round?"",""True or false: The hidden values will change each time I start a new round."",""How much does it cost to observe each hidden value?"",""How many hidden values am I allowed to observe in each round?"",""Which statement is TRUE?"",""What does the feedback teach me?""]","[""2"",""True"",""$0.10"",""As many or as few as I wish"",""My earnings for each round are equal to the <i>sum</i> of the values of all locations I visit (minus the cost of making observations), and I will be paid the earnings from one of the 8 rounds."",""All of the above.""]",25401,179639,survey-multi-choice,A19C6T7B0H4PAQ,3QXNC7EIPIVSQCHOB21K2S3DGQ809E,11
224,"[True, True, True, True, True, True]","[""How many flights are there per round?"",""True or false: The hidden values will change each time I start a new round."",""How much does it cost to observe each hidden value?"",""How many hidden values am I allowed to observe in each round?"",""Which statement is TRUE?"",""What does the feedback teach me?""]","[""3"",""True"",""$0.10"",""As many or as few as I wish"",""My earnings for each round are equal to the <i>sum</i> of the values of all locations I visit (minus the cost of making observations), and I will be paid the earnings from one of the 8 rounds."",""All of the above.""]",14118,277889,survey-multi-choice,A19C6T7B0H4PAQ,3QXNC7EIPIVSQCHOB21K2S3DGQ809E,11
235,"[False, True, False, False, True]","[""How many flights are there per round?"",""True or false: The hidden values will change each time I start a new round."",""How much does it cost to observe each hidden value?"",""How many hidden values am I allowed to observe in each round?"",""Which statement is TRUE?""]","[""1"",""True"",""$0.00"",""At most 15"",""My earnings for each round are equal to the <i>sum</i> of the values of all locations I visit (minus the cost of making observations), and I will be paid the earnings from one of the 8 rounds.""]",43870,123934,survey-multi-choice,A19IWME4DCIU1H,3PB5A5BD0V6LNX4GA7S39OZNR1W7G2,12
237,"[False, True, False, True, True]","[""How many flights are there per round?"",""True or false: The hidden values will change each time I start a new round."",""How much does it cost to observe each hidden value?"",""How many hidden values am I allowed to observe in each round?"",""Which statement is TRUE?""]","[""1"",""True"",""$0.00"",""As many or as few as I wish"",""My earnings for each round are equal to the <i>sum</i> of the values of all locations I visit (minus the cost of making observations), and I will be paid the earnings from one of the 8 rounds.""]",17991,193202,survey-multi-choice,A19IWME4DCIU1H,3PB5A5BD0V6LNX4GA7S39OZNR1W7G2,12
239,"[True, True, True, True, True]","[""How many flights are there per round?"",""True or false: The hidden values will change each time I start a new round."",""How much does it cost to observe each hidden value?"",""How many hidden values am I allowed to observe in each round?"",""Which statement is TRUE?""]","[""3"",""True"",""$0.10"",""As many or as few as I wish"",""My earnings for each round are equal to the <i>sum</i> of the values of all locations I visit (minus the cost of making observations), and I will be paid the earnings from one of the 8 rounds.""]",87153,337984,survey-multi-choice,A19IWME4DCIU1H,3PB5A5BD0V6LNX4GA7S39OZNR1W7G2,12
250,"[False, True, True, True, True, True]","[""How many flights are there per round?"",""True or false: The hidden values will change each time I start a new round."",""How much does it cost to observe each hidden value?"",""How many hidden values am I allowed to observe in each round?"",""Which statement is TRUE?"",""True of false: The duration of the delay tells me how much more money I could have earned by planning and deciding better.""]","[""1"",""True"",""$0.10"",""As many or as few as I wish"",""My earnings for each round are equal to the <i>sum</i> of the values of all locations I visit (minus the cost of making observations), and I will be paid the earnings from one of the 8 rounds."",""True""]",97265,288995,survey-multi-choice,A1A6DUWWGNEE4W,339ANSOTR52NE3HVJPHFY5HPDE1KIN,13
252,"[False, True, True, True, True, True]","[""How many flights are there per round?"",""True or false: The hidden values will change each time I start a new round."",""How much does it cost to observe each hidden value?"",""How many hidden values am I allowed to observe in each round?"",""Which statement is TRUE?"",""True of false: The duration of the delay tells me how much more money I could have earned by planning and deciding better.""]","[""1"",""True"",""$0.10"",""As many or as few as I wish"",""My earnings for each round are equal to the <i>sum</i> of the values of all locations I visit (minus the cost of making observations), and I will be paid the earnings from one of the 8 rounds."",""True""]",21945,452405,survey-multi-choice,A1A6DUWWGNEE4W,339ANSOTR52NE3HVJPHFY5HPDE1KIN,13
254,"[True, True, True, True, True, True]","[""How many flights are there per round?"",""True or false: The hidden values will change each time I start a new round."",""How much does it cost to observe each hidden value?"",""How many hidden values am I allowed to observe in each round?"",""Which statement is TRUE?"",""True of false: The duration of the delay tells me how much more money I could have earned by planning and deciding better.""]","[""3"",""True"",""$0.10"",""As many or as few as I wish"",""My earnings for each round are equal to the <i>sum</i> of the values of all locations I visit (minus the cost of making observations), and I will be paid the earnings from one of the 8 rounds."",""True""]",15583,508712,survey-multi-choice,A1A6DUWWGNEE4W,339ANSOTR52NE3HVJPHFY5HPDE1KIN,13
265,"[False, True, True, True, True, True]","[""How many flights are there per round?"",""True or false: The hidden values will change each time I start a new round."",""How much does it cost to observe each hidden value?"",""How many hidden values am I allowed to observe in each round?"",""Which statement is TRUE?"",""What does the feedback teach me?""]","[""1"",""True"",""$0.10"",""As many or as few as I wish"",""My earnings for each round are equal to the <i>sum</i> of the values of all locations I visit (minus the cost of making observations), and I will be paid the earnings from one of the 8 rounds."",""All of the above.""]",130999,451230,survey-multi-choice,A1AKTFYEZ493UQ,317HQ483I7SOM92YG29VQXYT79AINU,14
267,"[True, True, True, True, True, True]","[""How many flights are there per round?"",""True or false: The hidden values will change each time I start a new round."",""How much does it cost to observe each hidden value?"",""How many hidden values am I allowed to observe in each round?"",""Which statement is TRUE?"",""What does the feedback teach me?""]","[""3"",""True"",""$0.10"",""As many or as few as I wish"",""My earnings for each round are equal to the <i>sum</i> of the values of all locations I visit (minus the cost of making observations), and I will be paid the earnings from one of the 8 rounds."",""All of the above.""]",64625,834890,survey-multi-choice,A1AKTFYEZ493UQ,317HQ483I7SOM92YG29VQXYT79AINU,14
278,"[False, True, True, True, True]","[""How many flights are there per round?"",""True or false: The hidden values will change each time I start a new round."",""How much does it cost to observe each hidden value?"",""How many hidden values am I allowed to observe in each round?"",""Which statement is TRUE?""]","[""4"",""True"",""$0.10"",""As many or as few as I wish"",""My earnings for each round are equal to the <i>sum</i> of the values of all locations I visit (minus the cost of making observations), and I will be paid the earnings from one of the 8 rounds.""]",49277,173457,survey-multi-choice,A1APYLD4DUK33J,3WR9XG3T63B5BHBWF6Q20Z2K2C047M,15
280,"[False, True, True, True, True]","[""How many flights are there per round?"",""True or false: The hidden values will change each time I start a new round."",""How much does it cost to observe each hidden value?"",""How many hidden values am I allowed to observe in each round?"",""Which statement is TRUE?""]","[""2"",""True"",""$0.10"",""As many or as few as I wish"",""My earnings for each round are equal to the <i>sum</i> of the values of all locations I visit (minus the cost of making observations), and I will be paid the earnings from one of the 8 rounds.""]",16363,224559,survey-multi-choice,A1APYLD4DUK33J,3WR9XG3T63B5BHBWF6Q20Z2K2C047M,15
282,"[True, True, True, True, True]","[""How many flights are there per round?"",""True or false: The hidden values will change each time I start a new round."",""How much does it cost to observe each hidden value?"",""How many hidden values am I allowed to observe in each round?"",""Which statement is TRUE?""]","[""3"",""True"",""$0.10"",""As many or as few as I wish"",""My earnings for each round are equal to the <i>sum</i> of the values of all locations I visit (minus the cost of making observations), and I will be paid the earnings from one of the 8 rounds.""]",22292,278851,survey-multi-choice,A1APYLD4DUK33J,3WR9XG3T63B5BHBWF6Q20Z2K2C047M,15
293,"[True, True, True, True, True]","[""How many flights are there per round?"",""True or false: The hidden values will change each time I start a new round."",""How much does it cost to observe each hidden value?"",""How many hidden values am I allowed to observe in each round?"",""Which statement is TRUE?""]","[""3"",""True"",""$0.10"",""As many or as few as I wish"",""My earnings for each round are equal to the <i>sum</i> of the values of all locations I visit (minus the cost of making observations), and I will be paid the earnings from one of the 8 rounds.""]",15925,751099,survey-multi-choice,A1CN4UXQNL22OO,35BLDD71I6XNP40HIXJ809VWPPIZVT,16
304,"[False, True, False, True, False, False]","[""How many flights are there per round?"",""True or false: The hidden values will change each time I start a new round."",""How much does it cost to observe each hidden value?"",""How many hidden values am I allowed to observe in each round?"",""Which statement is TRUE?"",""What does the feedback teach me?""]","[""1"",""True"",""$0.50"",""As many or as few as I wish"",""My earnings for each round are equal to the value of one of the locations I visit (minus the cost of making observations), and I will actually be paid the earnings from one of the 8 rounds."",""Whether I observed the rewards of relevant locations.""]",55362,235914,survey-multi-choice,A1EK8YNHZHTW1J,3GFK2QRXX9H2XFGX1JHOX77FUQKW5I,17
306,"[False, True, True, True, False, True]","[""How many flights are there per round?"",""True or false: The hidden values will change each time I start a new round."",""How much does it cost to observe each hidden value?"",""How many hidden values am I allowed to observe in each round?"",""Which statement is TRUE?"",""What does the feedback teach me?""]","[""1"",""True"",""$0.10"",""As many or as few as I wish"",""My earnings for each round are equal to the value of one of the locations I visit (minus the cost of making observations), and I will actually be paid the earnings from one of the 8 rounds."",""All of the above.""]",70724,570545,survey-multi-choice,A1EK8YNHZHTW1J,3GFK2QRXX9H2XFGX1JHOX77FUQKW5I,17
308,"[False, True, True, True, True, True]","[""How many flights are there per round?"",""True or false: The hidden values will change each time I start a new round."",""How much does it cost to observe each hidden value?"",""How many hidden values am I allowed to observe in each round?"",""Which statement is TRUE?"",""What does the feedback teach me?""]","[""1"",""True"",""$0.10"",""As many or as few as I wish"",""My earnings for each round are equal to the <i>sum</i> of the values of all locations I visit (minus the cost of making observations), and I will be paid the earnings from one of the 8 rounds."",""All of the above.""]",10471,589606,survey-multi-choice,A1EK8YNHZHTW1J,3GFK2QRXX9H2XFGX1JHOX77FUQKW5I,17
310,"[False, True, True, True, False, True]","[""How many flights are there per round?"",""True or false: The hidden values will change each time I start a new round."",""How much does it cost to observe each hidden value?"",""How many hidden values am I allowed to observe in each round?"",""Which statement is TRUE?"",""What does the feedback teach me?""]","[""1"",""True"",""$0.10"",""As many or as few as I wish"",""My earnings for each round are equal to the value of one of the locations I visit (minus the cost of making observations), but these earnings aren't real money."",""All of the above.""]",11095,610638,survey-multi-choice,A1EK8YNHZHTW1J,3GFK2QRXX9H2XFGX1JHOX77FUQKW5I,17
312,"[False, True, True, True, False, True]","[""How many flights are there per round?"",""True or false: The hidden values will change each time I start a new round."",""How much does it cost to observe each hidden value?"",""How many hidden values am I allowed to observe in each round?"",""Which statement is TRUE?"",""What does the feedback teach me?""]","[""1"",""True"",""$0.10"",""As many or as few as I wish"",""My earnings for each round are equal to the <i>sum</i> of the values of all locations I visit (minus the cost of making observations), but these earnings aren't real money."",""All of the above.""]",7858,627061,survey-multi-choice,A1EK8YNHZHTW1J,3GFK2QRXX9H2XFGX1JHOX77FUQKW5I,17
314,"[False, True, True, True, False, False]","[""How many flights are there per round?"",""True or false: The hidden values will change each time I start a new round."",""How much does it cost to observe each hidden value?"",""How many hidden values am I allowed to observe in each round?"",""Which statement is TRUE?"",""What does the feedback teach me?""]","[""1"",""True"",""$0.10"",""As many or as few as I wish"",""My earnings for each round are equal to the value of one of the locations I visit (minus the cost of making observations), and I will actually be paid the earnings from one of the 8 rounds."",""Whether I observed the rewards of relevant locations.""]",99894,794894,survey-multi-choice,A1EK8YNHZHTW1J,3GFK2QRXX9H2XFGX1JHOX77FUQKW5I,17
316,"[False, True, True, True, False, False]","[""How many flights are there per round?"",""True or false: The hidden values will change each time I start a new round."",""How much does it cost to observe each hidden value?"",""How many hidden values am I allowed to observe in each round?"",""Which statement is TRUE?"",""What does the feedback teach me?""]","[""1"",""True"",""$0.10"",""As many or as few as I wish"",""My earnings for each round are equal to the value of one of the locations I visit (minus the cost of making observations), and I will actually be paid the earnings from one of the 8 rounds."",""Whether I chose the move that was best according to the information I had.""]",7657,810093,survey-multi-choice,A1EK8YNHZHTW1J,3GFK2QRXX9H2XFGX1JHOX77FUQKW5I,17
318,"[False, True, True, True, True, False]","[""How many flights are there per round?"",""True or false: The hidden values will change each time I start a new round."",""How much does it cost to observe each hidden value?"",""How many hidden values am I allowed to observe in each round?"",""Which statement is TRUE?"",""What does the feedback teach me?""]","[""1"",""True"",""$0.10"",""As many or as few as I wish"",""My earnings for each round are equal to the <i>sum</i> of the values of all locations I visit (minus the cost of making observations), and I will be paid the earnings from one of the 8 rounds."",""Whether I observed the rewards of relevant locations.""]",7659,829573,survey-multi-choice,A1EK8YNHZHTW1J,3GFK2QRXX9H2XFGX1JHOX77FUQKW5I,17
320,"[False, True, True, True, True, False]","[""How many flights are there per round?"",""True or false: The hidden values will change each time I start a new round."",""How much does it cost to observe each hidden value?"",""How many hidden values am I allowed to observe in each round?"",""Which statement is TRUE?"",""What does the feedback teach me?""]","[""1"",""True"",""$0.10"",""As many or as few as I wish"",""My earnings for each round are equal to the <i>sum</i> of the values of all locations I visit (minus the cost of making observations), and I will be paid the earnings from one of the 8 rounds."",""Whether I chose the move that was best according to the information I had.""]",6432,842452,survey-multi-choice,A1EK8YNHZHTW1J,3GFK2QRXX9H2XFGX1JHOX77FUQKW5I,17
322,"[False, True, True, True, False, False]","[""How many flights are there per round?"",""True or false: The hidden values will change each time I start a new round."",""How much does it cost to observe each hidden value?"",""How many hidden values am I allowed to observe in each round?"",""Which statement is TRUE?"",""What does the feedback teach me?""]","[""1"",""True"",""$0.10"",""As many or as few as I wish"",""My earnings for each round are equal to the value of one of the locations I visit (minus the cost of making observations), but these earnings aren't real money."",""Whether I observed the rewards of relevant locations.""]",9971,860233,survey-multi-choice,A1EK8YNHZHTW1J,3GFK2QRXX9H2XFGX1JHOX77FUQKW5I,17
324,"[False, True, True, True, False, False]","[""How many flights are there per round?"",""True or false: The hidden values will change each time I start a new round."",""How much does it cost to observe each hidden value?"",""How many hidden values am I allowed to observe in each round?"",""Which statement is TRUE?"",""What does the feedback teach me?""]","[""1"",""True"",""$0.10"",""As many or as few as I wish"",""My earnings for each round are equal to the <i>sum</i> of the values of all locations I visit (minus the cost of making observations), but these earnings aren't real money."",""Whether I observed the rewards of relevant locations.""]",10656,881264,survey-multi-choice,A1EK8YNHZHTW1J,3GFK2QRXX9H2XFGX1JHOX77FUQKW5I,17
326,"[False, True, True, True, False, False]","[""How many flights are there per round?"",""True or false: The hidden values will change each time I start a new round."",""How much does it cost to observe each hidden value?"",""How many hidden values am I allowed to observe in each round?"",""Which statement is TRUE?"",""What does the feedback teach me?""]","[""1"",""True"",""$0.10"",""As many or as few as I wish"",""My earnings for each round are equal to the <i>sum</i> of the values of all locations I visit (minus the cost of making observations), but these earnings aren't real money."",""Whether I chose the move that was best according to the information I had.""]",7369,897198,survey-multi-choice,A1EK8YNHZHTW1J,3GFK2QRXX9H2XFGX1JHOX77FUQKW5I,17
328,"[False, True, True, False, False, True]","[""How many flights are there per round?"",""True or false: The hidden values will change each time I start a new round."",""How much does it cost to observe each hidden value?"",""How many hidden values am I allowed to observe in each round?"",""Which statement is TRUE?"",""What does the feedback teach me?""]","[""1"",""True"",""$0.10"",""At most 15"",""My earnings for each round are equal to the value of one of the locations I visit (minus the cost of making observations), and I will actually be paid the earnings from one of the 8 rounds."",""All of the above.""]",13214,918956,survey-multi-choice,A1EK8YNHZHTW1J,3GFK2QRXX9H2XFGX1JHOX77FUQKW5I,17
330,"[False, True, True, False, False, True]","[""How many flights are there per round?"",""True or false: The hidden values will change each time I start a new round."",""How much does it cost to observe each hidden value?"",""How many hidden values am I allowed to observe in each round?"",""Which statement is TRUE?"",""What does the feedback teach me?""]","[""1"",""True"",""$0.10"",""At most 15"",""My earnings for each round are equal to the value of one of the locations I visit (minus the cost of making observations), and I will actually be paid the earnings from one of the 8 rounds."",""All of the above.""]",8119,934240,survey-multi-choice,A1EK8YNHZHTW1J,3GFK2QRXX9H2XFGX1JHOX77FUQKW5I,17
332,"[False, True, True, True, True, False]","[""How many flights are there per round?"",""True or false: The hidden values will change each time I start a new round."",""How much does it cost to observe each hidden value?"",""How many hidden values am I allowed to observe in each round?"",""Which statement is TRUE?"",""What does the feedback teach me?""]","[""1"",""True"",""$0.10"",""As many or as few as I wish"",""My earnings for each round are equal to the <i>sum</i> of the values of all locations I visit (minus the cost of making observations), and I will be paid the earnings from one of the 8 rounds."",""Whether I observed the rewards of relevant locations.""]",34056,979790,survey-multi-choice,A1EK8YNHZHTW1J,3GFK2QRXX9H2XFGX1JHOX77FUQKW5I,17
334,"[False, True, True, True, True, False]","[""How many flights are there per round?"",""True or false: The hidden values will change each time I start a new round."",""How much does it cost to observe each hidden value?"",""How many hidden values am I allowed to observe in each round?"",""Which statement is TRUE?"",""What does the feedback teach me?""]","[""1"",""True"",""$0.10"",""As many or as few as I wish"",""My earnings for each round are equal to the <i>sum</i> of the values of all locations I visit (minus the cost of making observations), and I will be paid the earnings from one of the 8 rounds."",""Whether I chose the move that was best according to the information I had.""]",6867,993261,survey-multi-choice,A1EK8YNHZHTW1J,3GFK2QRXX9H2XFGX1JHOX77FUQKW5I,17
336,"[False, False, True, True, True, True]","[""How many flights are there per round?"",""True or false: The hidden values will change each time I start a new round."",""How much does it cost to observe each hidden value?"",""How many hidden values am I allowed to observe in each round?"",""Which statement is TRUE?"",""What does the feedback teach me?""]","[""1"",""False"",""$0.10"",""As many or as few as I wish"",""My earnings for each round are equal to the <i>sum</i> of the values of all locations I visit (minus the cost of making observations), and I will be paid the earnings from one of the 8 rounds."",""All of the above.""]",26658,1046716,survey-multi-choice,A1EK8YNHZHTW1J,3GFK2QRXX9H2XFGX1JHOX77FUQKW5I,17
338,"[False, True, True, True, True, True]","[""How many flights are there per round?"",""True or false: The hidden values will change each time I start a new round."",""How much does it cost to observe each hidden value?"",""How many hidden values am I allowed to observe in each round?"",""Which statement is TRUE?"",""What does the feedback teach me?""]","[""1"",""True"",""$0.10"",""As many or as few as I wish"",""My earnings for each round are equal to the <i>sum</i> of the values of all locations I visit (minus the cost of making observations), and I will be paid the earnings from one of the 8 rounds."",""All of the above.""]",15078,1131995,survey-multi-choice,A1EK8YNHZHTW1J,3GFK2QRXX9H2XFGX1JHOX77FUQKW5I,17
340,"[False, True, True, True, True, True]","[""How many flights are there per round?"",""True or false: The hidden values will change each time I start a new round."",""How much does it cost to observe each hidden value?"",""How many hidden values am I allowed to observe in each round?"",""Which statement is TRUE?"",""What does the feedback teach me?""]","[""1"",""True"",""$0.10"",""As many or as few as I wish"",""My earnings for each round are equal to the <i>sum</i> of the values of all locations I visit (minus the cost of making observations), and I will be paid the earnings from one of the 8 rounds."",""All of the above.""]",56722,1279788,survey-multi-choice,A1EK8YNHZHTW1J,3GFK2QRXX9H2XFGX1JHOX77FUQKW5I,17
342,"[False, True, True, True, True, False]","[""How many flights are there per round?"",""True or false: The hidden values will change each time I start a new round."",""How much does it cost to observe each hidden value?"",""How many hidden values am I allowed to observe in each round?"",""Which statement is TRUE?"",""What does the feedback teach me?""]","[""1"",""True"",""$0.10"",""As many or as few as I wish"",""My earnings for each round are equal to the <i>sum</i> of the values of all locations I visit (minus the cost of making observations), and I will be paid the earnings from one of the 8 rounds."",""Whether I observed the rewards of relevant locations.""]",27178,1329474,survey-multi-choice,A1EK8YNHZHTW1J,3GFK2QRXX9H2XFGX1JHOX77FUQKW5I,17
344,"[False, True, True, True, True, False]","[""How many flights are there per round?"",""True or false: The hidden values will change each time I start a new round."",""How much does it cost to observe each hidden value?"",""How many hidden values am I allowed to observe in each round?"",""Which statement is TRUE?"",""What does the feedback teach me?""]","[""1"",""True"",""$0.10"",""As many or as few as I wish"",""My earnings for each round are equal to the <i>sum</i> of the values of all locations I visit (minus the cost of making observations), and I will be paid the earnings from one of the 8 rounds."",""Whether I chose the move that was best according to the information I had.""]",9256,1345581,survey-multi-choice,A1EK8YNHZHTW1J,3GFK2QRXX9H2XFGX1JHOX77FUQKW5I,17
346,"[False, True, True, True, True, True]","[""How many flights are there per round?"",""True or false: The hidden values will change each time I start a new round."",""How much does it cost to observe each hidden value?"",""How many hidden values am I allowed to observe in each round?"",""Which statement is TRUE?"",""What does the feedback teach me?""]","[""2"",""True"",""$0.10"",""As many or as few as I wish"",""My earnings for each round are equal to the <i>sum</i> of the values of all locations I visit (minus the cost of making observations), and I will be paid the earnings from one of the 8 rounds."",""All of the above.""]",48785,1401593,survey-multi-choice,A1EK8YNHZHTW1J,3GFK2QRXX9H2XFGX1JHOX77FUQKW5I,17
348,"[True, True, True, True, True, True]","[""How many flights are there per round?"",""True or false: The hidden values will change each time I start a new round."",""How much does it cost to observe each hidden value?"",""How many hidden values am I allowed to observe in each round?"",""Which statement is TRUE?"",""What does the feedback teach me?""]","[""3"",""True"",""$0.10"",""As many or as few as I wish"",""My earnings for each round are equal to the <i>sum</i> of the values of all locations I visit (minus the cost of making observations), and I will be paid the earnings from one of the 8 rounds."",""All of the above.""]",7410,1415085,survey-multi-choice,A1EK8YNHZHTW1J,3GFK2QRXX9H2XFGX1JHOX77FUQKW5I,17
359,"[False, False, True, True, False]","[""How many flights are there per round?"",""True or false: The hidden values will change each time I start a new round."",""How much does it cost to observe each hidden value?"",""How many hidden values am I allowed to observe in each round?"",""Which statement is TRUE?""]","[""1"",""False"",""$0.10"",""As many or as few as I wish"",""My earnings for each round are equal to the value of one of the locations I visit (minus the cost of making observations), and I will actually be paid the earnings from one of the 8 rounds.""]",40517,157763,survey-multi-choice,A1EN3FW93BSXQQ,3H7XDTSHKCR0DC5HIF0F14Y4L8QGWV,18
361,"[False, False, True, True, True]","[""How many flights are there per round?"",""True or false: The hidden values will change each time I start a new round."",""How much does it cost to observe each hidden value?"",""How many hidden values am I allowed to observe in each round?"",""Which statement is TRUE?""]","[""2"",""False"",""$0.10"",""As many or as few as I wish"",""My earnings for each round are equal to the <i>sum</i> of the values of all locations I visit (minus the cost of making observations), and I will be paid the earnings from one of the 8 rounds.""]",87059,319055,survey-multi-choice,A1EN3FW93BSXQQ,3H7XDTSHKCR0DC5HIF0F14Y4L8QGWV,18
363,"[False, False, True, True, True]","[""How many flights are there per round?"",""True or false: The hidden values will change each time I start a new round."",""How much does it cost to observe each hidden value?"",""How many hidden values am I allowed to observe in each round?"",""Which statement is TRUE?""]","[""1"",""False"",""$0.10"",""As many or as few as I wish"",""My earnings for each round are equal to the <i>sum</i> of the values of all locations I visit (minus the cost of making observations), and I will be paid the earnings from one of the 8 rounds.""]",8660,341272,survey-multi-choice,A1EN3FW93BSXQQ,3H7XDTSHKCR0DC5HIF0F14Y4L8QGWV,18
365,"[True, False, True, True, True]","[""How many flights are there per round?"",""True or false: The hidden values will change each time I start a new round."",""How much does it cost to observe each hidden value?"",""How many hidden values am I allowed to observe in each round?"",""Which statement is TRUE?""]","[""3"",""False"",""$0.10"",""As many or as few as I wish"",""My earnings for each round are equal to the <i>sum</i> of the values of all locations I visit (minus the cost of making observations), and I will be paid the earnings from one of the 8 rounds.""]",15996,403853,survey-multi-choice,A1EN3FW93BSXQQ,3H7XDTSHKCR0DC5HIF0F14Y4L8QGWV,18
367,"[False, False, True, True, True]","[""How many flights are there per round?"",""True or false: The hidden values will change each time I start a new round."",""How much does it cost to observe each hidden value?"",""How many hidden values am I allowed to observe in each round?"",""Which statement is TRUE?""]","[""2"",""False"",""$0.10"",""As many or as few as I wish"",""My earnings for each round are equal to the <i>sum</i> of the values of all locations I visit (minus the cost of making observations), and I will be paid the earnings from one of the 8 rounds.""]",12100,440665,survey-multi-choice,A1EN3FW93BSXQQ,3H7XDTSHKCR0DC5HIF0F14Y4L8QGWV,18
369,"[True, True, True, True, True]","[""How many flights are there per round?"",""True or false: The hidden values will change each time I start a new round."",""How much does it cost to observe each hidden value?"",""How many hidden values am I allowed to observe in each round?"",""Which statement is TRUE?""]","[""3"",""True"",""$0.10"",""As many or as few as I wish"",""My earnings for each round are equal to the <i>sum</i> of the values of all locations I visit (minus the cost of making observations), and I will be paid the earnings from one of the 8 rounds.""]",20092,519652,survey-multi-choice,A1EN3FW93BSXQQ,3H7XDTSHKCR0DC5HIF0F14Y4L8QGWV,18
380,"[False, True, True, True, False]","[""How many flights are there per round?"",""True or false: The hidden values will change each time I start a new round."",""How much does it cost to observe each hidden value?"",""How many hidden values am I allowed to observe in each round?"",""Which statement is TRUE?""]","[""1"",""True"",""$0.10"",""As many or as few as I wish"",""My earnings for each round are equal to the value of one of the locations I visit (minus the cost of making observations), and I will actually be paid the earnings from one of the 8 rounds.""]",36271,85834,survey-multi-choice,A1F1OZ54G177D8,3FPRZHYEPY7M4BTOXQOZW8QH9EXV39,19
382,"[False, True, True, True, True]","[""How many flights are there per round?"",""True or false: The hidden values will change each time I start a new round."",""How much does it cost to observe each hidden value?"",""How many hidden values am I allowed to observe in each round?"",""Which statement is TRUE?""]","[""1"",""True"",""$0.10"",""As many or as few as I wish"",""My earnings for each round are equal to the <i>sum</i> of the values of all locations I visit (minus the cost of making observations), and I will be paid the earnings from one of the 8 rounds.""]",42292,262858,survey-multi-choice,A1F1OZ54G177D8,3FPRZHYEPY7M4BTOXQOZW8QH9EXV39,19
384,"[True, True, True, True, True]","[""How many flights are there per round?"",""True or false: The hidden values will change each time I start a new round."",""How much does it cost to observe each hidden value?"",""How many hidden values am I allowed to observe in each round?"",""Which statement is TRUE?""]","[""3"",""True"",""$0.10"",""As many or as few as I wish"",""My earnings for each round are equal to the <i>sum</i> of the values of all locations I visit (minus the cost of making observations), and I will be paid the earnings from one of the 8 rounds.""]",23664,328317,survey-multi-choice,A1F1OZ54G177D8,3FPRZHYEPY7M4BTOXQOZW8QH9EXV39,19
395,"[False, True, True, True, True, True]","[""How many flights are there per round?"",""True or false: The hidden values will change each time I start a new round."",""How much does it cost to observe each hidden value?"",""How many hidden values am I allowed to observe in each round?"",""Which statement is TRUE?"",""True of false: The duration of the delay tells me how much more money I could have earned by planning and deciding better.""]","[""1"",""True"",""$0.10"",""As many or as few as I wish"",""My earnings for each round are equal to the <i>sum</i> of the values of all locations I visit (minus the cost of making observations), and I will be paid the earnings from one of the 8 rounds."",""True""]",75088,177101,survey-multi-choice,A1F9KLZGHE9DTA,39JEC7537U1AHBP7QJZ0PBUBFRAVC7,20
397,"[False, True, True, True, True, True]","[""How many flights are there per round?"",""True or false: The hidden values will change each time I start a new round."",""How much does it cost to observe each hidden value?"",""How many hidden values am I allowed to observe in each round?"",""Which statement is TRUE?"",""True of false: The duration of the delay tells me how much more money I could have earned by planning and deciding better.""]","[""1"",""True"",""$0.10"",""As many or as few as I wish"",""My earnings for each round are equal to the <i>sum</i> of the values of all locations I visit (minus the cost of making observations), and I will be paid the earnings from one of the 8 rounds."",""True""]",49712,352284,survey-multi-choice,A1F9KLZGHE9DTA,39JEC7537U1AHBP7QJZ0PBUBFRAVC7,20
399,"[True, True, True, True, True, True]","[""How many flights are there per round?"",""True or false: The hidden values will change each time I start a new round."",""How much does it cost to observe each hidden value?"",""How many hidden values am I allowed to observe in each round?"",""Which statement is TRUE?"",""True of false: The duration of the delay tells me how much more money I could have earned by planning and deciding better.""]","[""3"",""True"",""$0.10"",""As many or as few as I wish"",""My earnings for each round are equal to the <i>sum</i> of the values of all locations I visit (minus the cost of making observations), and I will be paid the earnings from one of the 8 rounds."",""True""]",29306,473635,survey-multi-choice,A1F9KLZGHE9DTA,39JEC7537U1AHBP7QJZ0PBUBFRAVC7,20
410,"[False, True, True, True, False, True]","[""How many flights are there per round?"",""True or false: The hidden values will change each time I start a new round."",""How much does it cost to observe each hidden value?"",""How many hidden values am I allowed to observe in each round?"",""Which statement is TRUE?"",""What does the feedback teach me?""]","[""4"",""True"",""$0.10"",""As many or as few as I wish"",""My earnings for each round are equal to the value of one of the locations I visit (minus the cost of making observations), and I will actually be paid the earnings from one of the 8 rounds."",""All of the above.""]",81279,294678,survey-multi-choice,A1FFMPJ0W6FHQ8,3MX2NQ3YC9UHMFLNBODAZQLM3LWX54,21
412,"[False, True, True, True, False, False]","[""How many flights are there per round?"",""True or false: The hidden values will change each time I start a new round."",""How much does it cost to observe each hidden value?"",""How many hidden values am I allowed to observe in each round?"",""Which statement is TRUE?"",""What does the feedback teach me?""]","[""4"",""True"",""$0.10"",""As many or as few as I wish"",""My earnings for each round are equal to the value of one of the locations I visit (minus the cost of making observations), and I will actually be paid the earnings from one of the 8 rounds."",""Whether I chose the move that was best according to the information I had.""]",54367,406630,survey-multi-choice,A1FFMPJ0W6FHQ8,3MX2NQ3YC9UHMFLNBODAZQLM3LWX54,21
414,"[False, True, True, True, False, False]","[""How many flights are there per round?"",""True or false: The hidden values will change each time I start a new round."",""How much does it cost to observe each hidden value?"",""How many hidden values am I allowed to observe in each round?"",""Which statement is TRUE?"",""What does the feedback teach me?""]","[""4"",""True"",""$0.10"",""As many or as few as I wish"",""My earnings for each round are equal to the value of one of the locations I visit (minus the cost of making observations), and I will actually be paid the earnings from one of the 8 rounds."",""The duration of the delay tells me how much more money I could have earned by planning and deciding better.""]",23383,469805,survey-multi-choice,A1FFMPJ0W6FHQ8,3MX2NQ3YC9UHMFLNBODAZQLM3LWX54,21
416,"[False, True, True, True, False, False]","[""How many flights are there per round?"",""True or false: The hidden values will change each time I start a new round."",""How much does it cost to observe each hidden value?"",""How many hidden values am I allowed to observe in each round?"",""Which statement is TRUE?"",""What does the feedback teach me?""]","[""1"",""True"",""$0.10"",""As many or as few as I wish"",""My earnings for each round are equal to the value of one of the locations I visit (minus the cost of making observations), and I will actually be paid the earnings from one of the 8 rounds."",""Whether I chose the move that was best according to the information I had.""]",39231,549430,survey-multi-choice,A1FFMPJ0W6FHQ8,3MX2NQ3YC9UHMFLNBODAZQLM3LWX54,21
418,"[False, True, True, True, False, True]","[""How many flights are there per round?"",""True or false: The hidden values will change each time I start a new round."",""How much does it cost to observe each hidden value?"",""How many hidden values am I allowed to observe in each round?"",""Which statement is TRUE?"",""What does the feedback teach me?""]","[""1"",""True"",""$0.10"",""As many or as few as I wish"",""My earnings for each round are equal to the value of one of the locations I visit (minus the cost of making observations), and I will actually be paid the earnings from one of the 8 rounds."",""All of the above.""]",11032,619445,survey-multi-choice,A1FFMPJ0W6FHQ8,3MX2NQ3YC9UHMFLNBODAZQLM3LWX54,21
420,"[False, True, True, True, False, True]","[""How many flights are there per round?"",""True or false: The hidden values will change each time I start a new round."",""How much does it cost to observe each hidden value?"",""How many hidden values am I allowed to observe in each round?"",""Which statement is TRUE?"",""What does the feedback teach me?""]","[""1"",""True"",""$0.10"",""As many or as few as I wish"",""My earnings for each round are equal to the value of one of the locations I visit (minus the cost of making observations), but these earnings aren't real money."",""All of the above.""]",16269,643591,survey-multi-choice,A1FFMPJ0W6FHQ8,3MX2NQ3YC9UHMFLNBODAZQLM3LWX54,21
422,"[False, True, True, True, True, True]","[""How many flights are there per round?"",""True or false: The hidden values will change each time I start a new round."",""How much does it cost to observe each hidden value?"",""How many hidden values am I allowed to observe in each round?"",""Which statement is TRUE?"",""What does the feedback teach me?""]","[""1"",""True"",""$0.10"",""As many or as few as I wish"",""My earnings for each round are equal to the <i>sum</i> of the values of all locations I visit (minus the cost of making observations), and I will be paid the earnings from one of the 8 rounds."",""All of the above.""]",32460,785269,survey-multi-choice,A1FFMPJ0W6FHQ8,3MX2NQ3YC9UHMFLNBODAZQLM3LWX54,21
424,"[True, True, True, True, True, True]","[""How many flights are there per round?"",""True or false: The hidden values will change each time I start a new round."",""How much does it cost to observe each hidden value?"",""How many hidden values am I allowed to observe in each round?"",""Which statement is TRUE?"",""What does the feedback teach me?""]","[""3"",""True"",""$0.10"",""As many or as few as I wish"",""My earnings for each round are equal to the <i>sum</i> of the values of all locations I visit (minus the cost of making observations), and I will be paid the earnings from one of the 8 rounds."",""All of the above.""]",19829,811048,survey-multi-choice,A1FFMPJ0W6FHQ8,3MX2NQ3YC9UHMFLNBODAZQLM3LWX54,21
435,"[False, True, True, True, True]","[""How many flights are there per round?"",""True or false: The hidden values will change each time I start a new round."",""How much does it cost to observe each hidden value?"",""How many hidden values am I allowed to observe in each round?"",""Which statement is TRUE?""]","[""1"",""True"",""$0.10"",""As many or as few as I wish"",""My earnings for each round are equal to the <i>sum</i> of the values of all locations I visit (minus the cost of making observations), and I will be paid the earnings from one of the 8 rounds.""]",48761,125862,survey-multi-choice,A1FGKIKJYSL1MI,3VFJCI1K4ZZV5GOVJLQ9E5QNTT3GRK,22
437,"[True, True, True, True, True]","[""How many flights are there per round?"",""True or false: The hidden values will change each time I start a new round."",""How much does it cost to observe each hidden value?"",""How many hidden values am I allowed to observe in each round?"",""Which statement is TRUE?""]","[""3"",""True"",""$0.10"",""As many or as few as I wish"",""My earnings for each round are equal to the <i>sum</i> of the values of all locations I visit (minus the cost of making observations), and I will be paid the earnings from one of the 8 rounds.""]",17938,181751,survey-multi-choice,A1FGKIKJYSL1MI,3VFJCI1K4ZZV5GOVJLQ9E5QNTT3GRK,22
448,"[True, True, True, True, True]","[""How many flights are there per round?"",""True or false: The hidden values will change each time I start a new round."",""How much does it cost to observe each hidden value?"",""How many hidden values am I allowed to observe in each round?"",""Which statement is TRUE?""]","[""3"",""True"",""$0.10"",""As many or as few as I wish"",""My earnings for each round are equal to the <i>sum</i> of the values of all locations I visit (minus the cost of making observations), and I will be paid the earnings from one of the 8 rounds.""]",199366,410270,survey-multi-choice,A1FQGVP8SX5WE2,3VELCLL3GKJ1YBTJA75CQT8YN0WF1E,23
459,"[False, False, True, True, True, True]","[""How many flights are there per round?"",""True or false: The hidden values will change each time I start a new round."",""How much does it cost to observe each hidden value?"",""How many hidden values am I allowed to observe in each round?"",""Which statement is TRUE?"",""What does the feedback teach me?""]","[""2"",""False"",""$0.10"",""As many or as few as I wish"",""My earnings for each round are equal to the <i>sum</i> of the values of all locations I visit (minus the cost of making observations), and I will be paid the earnings from one of the 8 rounds."",""All of the above.""]",46528,122656,survey-multi-choice,A1G187YBG0DVMQ,3I2PTA7R3TU0V15EWXMO778B4OHKQP,24
461,"[True, True, True, True, True, True]","[""How many flights are there per round?"",""True or false: The hidden values will change each time I start a new round."",""How much does it cost to observe each hidden value?"",""How many hidden values am I allowed to observe in each round?"",""Which statement is TRUE?"",""What does the feedback teach me?""]","[""3"",""True"",""$0.10"",""As many or as few as I wish"",""My earnings for each round are equal to the <i>sum</i> of the values of all locations I visit (minus the cost of making observations), and I will be paid the earnings from one of the 8 rounds."",""All of the above.""]",19533,183370,survey-multi-choice,A1G187YBG0DVMQ,3I2PTA7R3TU0V15EWXMO778B4OHKQP,24
472,"[False, True, True, True, True, True]","[""How many flights are there per round?"",""True or false: The hidden values will change each time I start a new round."",""How much does it cost to observe each hidden value?"",""How many hidden values am I allowed to observe in each round?"",""Which statement is TRUE?"",""True of false: The duration of the delay tells me how much more money I could have earned by planning and deciding better.""]","[""1"",""True"",""$0.10"",""As many or as few as I wish"",""My earnings for each round are equal to the <i>sum</i> of the values of all locations I visit (minus the cost of making observations), and I will be paid the earnings from one of the 8 rounds."",""True""]",74681,195725,survey-multi-choice,A1GRPIBHW72HDU,3X65QVEQI0N7L6DDCFXU22W9OT9CL6,25
474,"[False, True, True, True, False, True]","[""How many flights are there per round?"",""True or false: The hidden values will change each time I start a new round."",""How much does it cost to observe each hidden value?"",""How many hidden values am I allowed to observe in each round?"",""Which statement is TRUE?"",""True of false: The duration of the delay tells me how much more money I could have earned by planning and deciding better.""]","[""1"",""True"",""$0.10"",""As many or as few as I wish"",""My earnings for each round are equal to the value of one of the locations I visit (minus the cost of making observations), and I will actually be paid the earnings from one of the 8 rounds."",""True""]",26349,287376,survey-multi-choice,A1GRPIBHW72HDU,3X65QVEQI0N7L6DDCFXU22W9OT9CL6,25
476,"[False, True, True, True, False, False]","[""How many flights are there per round?"",""True or false: The hidden values will change each time I start a new round."",""How much does it cost to observe each hidden value?"",""How many hidden values am I allowed to observe in each round?"",""Which statement is TRUE?"",""True of false: The duration of the delay tells me how much more money I could have earned by planning and deciding better.""]","[""1"",""True"",""$0.10"",""As many or as few as I wish"",""My earnings for each round are equal to the value of one of the locations I visit (minus the cost of making observations), and I will actually be paid the earnings from one of the 8 rounds."",""False""]",14013,315441,survey-multi-choice,A1GRPIBHW72HDU,3X65QVEQI0N7L6DDCFXU22W9OT9CL6,25
478,"[True, True, True, True, False, True]","[""How many flights are there per round?"",""True or false: The hidden values will change each time I start a new round."",""How much does it cost to observe each hidden value?"",""How many hidden values am I allowed to observe in each round?"",""Which statement is TRUE?"",""True of false: The duration of the delay tells me how much more money I could have earned by planning and deciding better.""]","[""3"",""True"",""$0.10"",""As many or as few as I wish"",""My earnings for each round are equal to the value of one of the locations I visit (minus the cost of making observations), and I will actually be paid the earnings from one of the 8 rounds."",""True""]",11318,406270,survey-multi-choice,A1GRPIBHW72HDU,3X65QVEQI0N7L6DDCFXU22W9OT9CL6,25
480,"[True, True, True, True, True, True]","[""How many flights are there per round?"",""True or false: The hidden values will change each time I start a new round."",""How much does it cost to observe each hidden value?"",""How many hidden values am I allowed to observe in each round?"",""Which statement is TRUE?"",""True of false: The duration of the delay tells me how much more money I could have earned by planning and deciding better.""]","[""3"",""True"",""$0.10"",""As many or as few as I wish"",""My earnings for each round are equal to the <i>sum</i> of the values of all locations I visit (minus the cost of making observations), and I will be paid the earnings from one of the 8 rounds."",""True""]",26996,484812,survey-multi-choice,A1GRPIBHW72HDU,3X65QVEQI0N7L6DDCFXU22W9OT9CL6,25
491,"[False, True, True, True, True, True]","[""How many flights are there per round?"",""True or false: The hidden values will change each time I start a new round."",""How much does it cost to observe each hidden value?"",""How many hidden values am I allowed to observe in each round?"",""Which statement is TRUE?"",""True of false: The duration of the delay tells me how much more money I could have earned by planning and deciding better.""]","[""1"",""True"",""$0.10"",""As many or as few as I wish"",""My earnings for each round are equal to the <i>sum</i> of the values of all locations I visit (minus the cost of making observations), and I will be paid the earnings from one of the 8 rounds."",""True""]",54877,159817,survey-multi-choice,A1H51PXOUAMD7W,3DL65MZB8DFTF03LVTAQP76PGCKECU,26
493,"[False, True, True, True, True, False]","[""How many flights are there per round?"",""True or false: The hidden values will change each time I start a new round."",""How much does it cost to observe each hidden value?"",""How many hidden values am I allowed to observe in each round?"",""Which statement is TRUE?"",""True of false: The duration of the delay tells me how much more money I could have earned by planning and deciding better.""]","[""1"",""True"",""$0.10"",""As many or as few as I wish"",""My earnings for each round are equal to the <i>sum</i> of the values of all locations I visit (minus the cost of making observations), and I will be paid the earnings from one of the 8 rounds."",""False""]",20007,211230,survey-multi-choice,A1H51PXOUAMD7W,3DL65MZB8DFTF03LVTAQP76PGCKECU,26
495,"[False, True, True, True, True, True]","[""How many flights are there per round?"",""True or false: The hidden values will change each time I start a new round."",""How much does it cost to observe each hidden value?"",""How many hidden values am I allowed to observe in each round?"",""Which statement is TRUE?"",""True of false: The duration of the delay tells me how much more money I could have earned by planning and deciding better.""]","[""1"",""True"",""$0.10"",""As many or as few as I wish"",""My earnings for each round are equal to the <i>sum</i> of the values of all locations I visit (minus the cost of making observations), and I will be paid the earnings from one of the 8 rounds."",""True""]",20647,239306,survey-multi-choice,A1H51PXOUAMD7W,3DL65MZB8DFTF03LVTAQP76PGCKECU,26
497,"[True, True, True, True, True, True]","[""How many flights are there per round?"",""True or false: The hidden values will change each time I start a new round."",""How much does it cost to observe each hidden value?"",""How many hidden values am I allowed to observe in each round?"",""Which statement is TRUE?"",""True of false: The duration of the delay tells me how much more money I could have earned by planning and deciding better.""]","[""3"",""True"",""$0.10"",""As many or as few as I wish"",""My earnings for each round are equal to the <i>sum</i> of the values of all locations I visit (minus the cost of making observations), and I will be paid the earnings from one of the 8 rounds."",""True""]",12995,322019,survey-multi-choice,A1H51PXOUAMD7W,3DL65MZB8DFTF03LVTAQP76PGCKECU,26
508,"[False, True, True, True, True]","[""How many flights are there per round?"",""True or false: The hidden values will change each time I start a new round."",""How much does it cost to observe each hidden value?"",""How many hidden values am I allowed to observe in each round?"",""Which statement is TRUE?""]","[""1"",""True"",""$0.10"",""As many or as few as I wish"",""My earnings for each round are equal to the <i>sum</i> of the values of all locations I visit (minus the cost of making observations), and I will be paid the earnings from one of the 8 rounds.""]",38897,136098,survey-multi-choice,A1IFF4KV23FGHJ,3EFE17QCRC5L6RJJIG8WPF7KUVYSHI,27
510,"[False, False, True, True, True]","[""How many flights are there per round?"",""True or false: The hidden values will change each time I start a new round."",""How much does it cost to observe each hidden value?"",""How many hidden values am I allowed to observe in each round?"",""Which statement is TRUE?""]","[""1"",""False"",""$0.10"",""As many or as few as I wish"",""My earnings for each round are equal to the <i>sum</i> of the values of all locations I visit (minus the cost of making observations), and I will be paid the earnings from one of the 8 rounds.""]",62081,216744,survey-multi-choice,A1IFF4KV23FGHJ,3EFE17QCRC5L6RJJIG8WPF7KUVYSHI,27
512,"[False, True, True, True, True]","[""How many flights are there per round?"",""True or false: The hidden values will change each time I start a new round."",""How much does it cost to observe each hidden value?"",""How many hidden values am I allowed to observe in each round?"",""Which statement is TRUE?""]","[""2"",""True"",""$0.10"",""As many or as few as I wish"",""My earnings for each round are equal to the <i>sum</i> of the values of all locations I visit (minus the cost of making observations), and I will be paid the earnings from one of the 8 rounds.""]",27389,381111,survey-multi-choice,A1IFF4KV23FGHJ,3EFE17QCRC5L6RJJIG8WPF7KUVYSHI,27
514,"[True, True, True, True, True]","[""How many flights are there per round?"",""True or false: The hidden values will change each time I start a new round."",""How much does it cost to observe each hidden value?"",""How many hidden values am I allowed to observe in each round?"",""Which statement is TRUE?""]","[""3"",""True"",""$0.10"",""As many or as few as I wish"",""My earnings for each round are equal to the <i>sum</i> of the values of all locations I visit (minus the cost of making observations), and I will be paid the earnings from one of the 8 rounds.""]",15298,400647,survey-multi-choice,A1IFF4KV23FGHJ,3EFE17QCRC5L6RJJIG8WPF7KUVYSHI,27
