,correct,questions,responses,rt,time_elapsed,trial_type,worker_id,assignment_id,pid
2,"[False, True, True, False, True, False]","[""How many flights are there per round?"",""True or false: The hidden values will change each time I start a new round."",""How much does it cost to observe each hidden value?"",""How many hidden values am I allowed to observe in each round?"",""Which statement is TRUE?"",""True of false: The duration of the delay tells me how much more money I could have earned by planning and deciding better.""]","[""4"",""True"",""$0.10"",""At most 15"",""My earnings for each round are equal to the <i>sum</i> of the values of all locations I visit (minus the cost of making observations), and I will be paid the earnings from one of the 12 rounds."",""False""]",58079,113690,survey-multi-choice,A11UOM2LJ69AE7,33PPUNGG385VWXJ09DEYZC6T4SPRZU,0
4,"[False, True, True, True, True, False]","[""How many flights are there per round?"",""True or false: The hidden values will change each time I start a new round."",""How much does it cost to observe each hidden value?"",""How many hidden values am I allowed to observe in each round?"",""Which statement is TRUE?"",""True of false: The duration of the delay tells me how much more money I could have earned by planning and deciding better.""]","[""4"",""True"",""$0.10"",""As many or as few as I wish"",""My earnings for each round are equal to the <i>sum</i> of the values of all locations I visit (minus the cost of making observations), and I will be paid the earnings from one of the 12 rounds."",""False""]",41915,226986,survey-multi-choice,A11UOM2LJ69AE7,33PPUNGG385VWXJ09DEYZC6T4SPRZU,0
6,"[False, True, True, True, False, False]","[""How many flights are there per round?"",""True or false: The hidden values will change each time I start a new round."",""How much does it cost to observe each hidden value?"",""How many hidden values am I allowed to observe in each round?"",""Which statement is TRUE?"",""True of false: The duration of the delay tells me how much more money I could have earned by planning and deciding better.""]","[""4"",""True"",""$0.10"",""As many or as few as I wish"",""My earnings for each round are equal to the <i>sum</i> of the values of all locations I visit (minus the cost of making observations), but these earnings aren't real money."",""False""]",46943,380440,survey-multi-choice,A11UOM2LJ69AE7,33PPUNGG385VWXJ09DEYZC6T4SPRZU,0
8,"[False, True, True, True, True, True]","[""How many flights are there per round?"",""True or false: The hidden values will change each time I start a new round."",""How much does it cost to observe each hidden value?"",""How many hidden values am I allowed to observe in each round?"",""Which statement is TRUE?"",""True of false: The duration of the delay tells me how much more money I could have earned by planning and deciding better.""]","[""4"",""True"",""$0.10"",""As many or as few as I wish"",""My earnings for each round are equal to the <i>sum</i> of the values of all locations I visit (minus the cost of making observations), and I will be paid the earnings from one of the 12 rounds."",""True""]",23429,416896,survey-multi-choice,A11UOM2LJ69AE7,33PPUNGG385VWXJ09DEYZC6T4SPRZU,0
10,"[False, True, True, True, False, True]","[""How many flights are there per round?"",""True or false: The hidden values will change each time I start a new round."",""How much does it cost to observe each hidden value?"",""How many hidden values am I allowed to observe in each round?"",""Which statement is TRUE?"",""True of false: The duration of the delay tells me how much more money I could have earned by planning and deciding better.""]","[""4"",""True"",""$0.10"",""As many or as few as I wish"",""My earnings for each round are equal to the <i>sum</i> of the values of all locations I visit (minus the cost of making observations), but these earnings aren't real money."",""True""]",20650,458199,survey-multi-choice,A11UOM2LJ69AE7,33PPUNGG385VWXJ09DEYZC6T4SPRZU,0
12,"[False, True, True, False, False, True]","[""How many flights are there per round?"",""True or false: The hidden values will change each time I start a new round."",""How much does it cost to observe each hidden value?"",""How many hidden values am I allowed to observe in each round?"",""Which statement is TRUE?"",""True of false: The duration of the delay tells me how much more money I could have earned by planning and deciding better.""]","[""4"",""True"",""$0.10"",""At most 15"",""My earnings for each round are equal to the <i>sum</i> of the values of all locations I visit (minus the cost of making observations), but these earnings aren't real money."",""True""]",39990,519941,survey-multi-choice,A11UOM2LJ69AE7,33PPUNGG385VWXJ09DEYZC6T4SPRZU,0
14,"[False, True, True, False, False, True]","[""How many flights are there per round?"",""True or false: The hidden values will change each time I start a new round."",""How much does it cost to observe each hidden value?"",""How many hidden values am I allowed to observe in each round?"",""Which statement is TRUE?"",""True of false: The duration of the delay tells me how much more money I could have earned by planning and deciding better.""]","[""1"",""True"",""$0.10"",""At most 15"",""My earnings for each round are equal to the <i>sum</i> of the values of all locations I visit (minus the cost of making observations), but these earnings aren't real money."",""True""]",31048,594676,survey-multi-choice,A11UOM2LJ69AE7,33PPUNGG385VWXJ09DEYZC6T4SPRZU,0
16,"[False, True, True, True, True, True]","[""How many flights are there per round?"",""True or false: The hidden values will change each time I start a new round."",""How much does it cost to observe each hidden value?"",""How many hidden values am I allowed to observe in each round?"",""Which statement is TRUE?"",""True of false: The duration of the delay tells me how much more money I could have earned by planning and deciding better.""]","[""1"",""True"",""$0.10"",""As many or as few as I wish"",""My earnings for each round are equal to the <i>sum</i> of the values of all locations I visit (minus the cost of making observations), and I will be paid the earnings from one of the 12 rounds."",""True""]",42167,724417,survey-multi-choice,A11UOM2LJ69AE7,33PPUNGG385VWXJ09DEYZC6T4SPRZU,0
18,"[False, True, True, False, True, True]","[""How many flights are there per round?"",""True or false: The hidden values will change each time I start a new round."",""How much does it cost to observe each hidden value?"",""How many hidden values am I allowed to observe in each round?"",""Which statement is TRUE?"",""True of false: The duration of the delay tells me how much more money I could have earned by planning and deciding better.""]","[""1"",""True"",""$0.10"",""At most 5"",""My earnings for each round are equal to the <i>sum</i> of the values of all locations I visit (minus the cost of making observations), and I will be paid the earnings from one of the 12 rounds."",""True""]",43002,866409,survey-multi-choice,A11UOM2LJ69AE7,33PPUNGG385VWXJ09DEYZC6T4SPRZU,0
20,"[False, True, True, True, False, True]","[""How many flights are there per round?"",""True or false: The hidden values will change each time I start a new round."",""How much does it cost to observe each hidden value?"",""How many hidden values am I allowed to observe in each round?"",""Which statement is TRUE?"",""True of false: The duration of the delay tells me how much more money I could have earned by planning and deciding better.""]","[""4"",""True"",""$0.10"",""As many or as few as I wish"",""My earnings for each round are equal to the <i>sum</i> of the values of all locations I visit (minus the cost of making observations), but these earnings aren't real money."",""True""]",31597,965174,survey-multi-choice,A11UOM2LJ69AE7,33PPUNGG385VWXJ09DEYZC6T4SPRZU,0
22,"[False, True, True, True, True, True]","[""How many flights are there per round?"",""True or false: The hidden values will change each time I start a new round."",""How much does it cost to observe each hidden value?"",""How many hidden values am I allowed to observe in each round?"",""Which statement is TRUE?"",""True of false: The duration of the delay tells me how much more money I could have earned by planning and deciding better.""]","[""4"",""True"",""$0.10"",""As many or as few as I wish"",""My earnings for each round are equal to the <i>sum</i> of the values of all locations I visit (minus the cost of making observations), and I will be paid the earnings from one of the 12 rounds."",""True""]",28881,1009809,survey-multi-choice,A11UOM2LJ69AE7,33PPUNGG385VWXJ09DEYZC6T4SPRZU,0
24,"[False, True, True, True, True, True]","[""How many flights are there per round?"",""True or false: The hidden values will change each time I start a new round."",""How much does it cost to observe each hidden value?"",""How many hidden values am I allowed to observe in each round?"",""Which statement is TRUE?"",""True of false: The duration of the delay tells me how much more money I could have earned by planning and deciding better.""]","[""1"",""True"",""$0.10"",""As many or as few as I wish"",""My earnings for each round are equal to the <i>sum</i> of the values of all locations I visit (minus the cost of making observations), and I will be paid the earnings from one of the 12 rounds."",""True""]",31205,1064902,survey-multi-choice,A11UOM2LJ69AE7,33PPUNGG385VWXJ09DEYZC6T4SPRZU,0
26,"[True, True, True, True, False, True]","[""How many flights are there per round?"",""True or false: The hidden values will change each time I start a new round."",""How much does it cost to observe each hidden value?"",""How many hidden values am I allowed to observe in each round?"",""Which statement is TRUE?"",""True of false: The duration of the delay tells me how much more money I could have earned by planning and deciding better.""]","[""3"",""True"",""$0.10"",""As many or as few as I wish"",""My earnings for each round are equal to the <i>sum</i> of the values of all locations I visit (minus the cost of making observations), but these earnings aren't real money."",""True""]",14240,1128161,survey-multi-choice,A11UOM2LJ69AE7,33PPUNGG385VWXJ09DEYZC6T4SPRZU,0
28,"[True, True, True, True, False, True]","[""How many flights are there per round?"",""True or false: The hidden values will change each time I start a new round."",""How much does it cost to observe each hidden value?"",""How many hidden values am I allowed to observe in each round?"",""Which statement is TRUE?"",""True of false: The duration of the delay tells me how much more money I could have earned by planning and deciding better.""]","[""3"",""True"",""$0.10"",""As many or as few as I wish"",""My earnings for each round are equal to the <i>sum</i> of the values of all locations I visit (minus the cost of making observations), but these earnings aren't real money."",""True""]",23081,1163443,survey-multi-choice,A11UOM2LJ69AE7,33PPUNGG385VWXJ09DEYZC6T4SPRZU,0
30,"[True, True, True, True, True, True]","[""How many flights are there per round?"",""True or false: The hidden values will change each time I start a new round."",""How much does it cost to observe each hidden value?"",""How many hidden values am I allowed to observe in each round?"",""Which statement is TRUE?"",""True of false: The duration of the delay tells me how much more money I could have earned by planning and deciding better.""]","[""3"",""True"",""$0.10"",""As many or as few as I wish"",""My earnings for each round are equal to the <i>sum</i> of the values of all locations I visit (minus the cost of making observations), and I will be paid the earnings from one of the 12 rounds."",""True""]",14794,1195932,survey-multi-choice,A11UOM2LJ69AE7,33PPUNGG385VWXJ09DEYZC6T4SPRZU,0
48,"[False, True, True, True, True, True]","[""How many flights are there per round?"",""True or false: The hidden values will change each time I start a new round."",""How much does it cost to observe each hidden value?"",""How many hidden values am I allowed to observe in each round?"",""Which statement is TRUE?"",""What does the feedback teach me?""]","[""2"",""True"",""$0.10"",""As many or as few as I wish"",""My earnings for each round are equal to the <i>sum</i> of the values of all locations I visit (minus the cost of making observations), and I will be paid the earnings from one of the 12 rounds."",""All of the above.""]",149057,402420,survey-multi-choice,A12X43VFAKMR89,36ZN444YTRY64U2AHH985MYYXS3IOF,1
50,"[False, True, True, True, True, True]","[""How many flights are there per round?"",""True or false: The hidden values will change each time I start a new round."",""How much does it cost to observe each hidden value?"",""How many hidden values am I allowed to observe in each round?"",""Which statement is TRUE?"",""What does the feedback teach me?""]","[""1"",""True"",""$0.10"",""As many or as few as I wish"",""My earnings for each round are equal to the <i>sum</i> of the values of all locations I visit (minus the cost of making observations), and I will be paid the earnings from one of the 12 rounds."",""All of the above.""]",66686,603740,survey-multi-choice,A12X43VFAKMR89,36ZN444YTRY64U2AHH985MYYXS3IOF,1
52,"[False, True, True, True, False, True]","[""How many flights are there per round?"",""True or false: The hidden values will change each time I start a new round."",""How much does it cost to observe each hidden value?"",""How many hidden values am I allowed to observe in each round?"",""Which statement is TRUE?"",""What does the feedback teach me?""]","[""2"",""True"",""$0.10"",""As many or as few as I wish"",""My earnings for each round are equal to the <i>sum</i> of the values of all locations I visit (minus the cost of making observations), but these earnings aren't real money."",""All of the above.""]",44165,723165,survey-multi-choice,A12X43VFAKMR89,36ZN444YTRY64U2AHH985MYYXS3IOF,1
54,"[False, True, True, True, True, False]","[""How many flights are there per round?"",""True or false: The hidden values will change each time I start a new round."",""How much does it cost to observe each hidden value?"",""How many hidden values am I allowed to observe in each round?"",""Which statement is TRUE?"",""What does the feedback teach me?""]","[""2"",""True"",""$0.10"",""As many or as few as I wish"",""My earnings for each round are equal to the <i>sum</i> of the values of all locations I visit (minus the cost of making observations), and I will be paid the earnings from one of the 12 rounds."",""Whether I observed the rewards of relevant locations.""]",20619,761339,survey-multi-choice,A12X43VFAKMR89,36ZN444YTRY64U2AHH985MYYXS3IOF,1
56,"[False, True, True, True, True, False]","[""How many flights are there per round?"",""True or false: The hidden values will change each time I start a new round."",""How much does it cost to observe each hidden value?"",""How many hidden values am I allowed to observe in each round?"",""Which statement is TRUE?"",""What does the feedback teach me?""]","[""2"",""True"",""$0.10"",""As many or as few as I wish"",""My earnings for each round are equal to the <i>sum</i> of the values of all locations I visit (minus the cost of making observations), and I will be paid the earnings from one of the 12 rounds."",""Whether I chose the move that was best according to the information I had.""]",24196,793143,survey-multi-choice,A12X43VFAKMR89,36ZN444YTRY64U2AHH985MYYXS3IOF,1
58,"[False, True, True, True, True, False]","[""How many flights are there per round?"",""True or false: The hidden values will change each time I start a new round."",""How much does it cost to observe each hidden value?"",""How many hidden values am I allowed to observe in each round?"",""Which statement is TRUE?"",""What does the feedback teach me?""]","[""2"",""True"",""$0.10"",""As many or as few as I wish"",""My earnings for each round are equal to the <i>sum</i> of the values of all locations I visit (minus the cost of making observations), and I will be paid the earnings from one of the 12 rounds."",""The duration of the delay tells me how much more money I could have earned by planning and deciding better.""]",18719,819267,survey-multi-choice,A12X43VFAKMR89,36ZN444YTRY64U2AHH985MYYXS3IOF,1
60,"[False, True, True, True, True, False]","[""How many flights are there per round?"",""True or false: The hidden values will change each time I start a new round."",""How much does it cost to observe each hidden value?"",""How many hidden values am I allowed to observe in each round?"",""Which statement is TRUE?"",""What does the feedback teach me?""]","[""2"",""True"",""$0.10"",""As many or as few as I wish"",""My earnings for each round are equal to the <i>sum</i> of the values of all locations I visit (minus the cost of making observations), and I will be paid the earnings from one of the 12 rounds."",""The duration of the delay tells me how much more money I could have earned by planning and deciding better.""]",33177,862131,survey-multi-choice,A12X43VFAKMR89,36ZN444YTRY64U2AHH985MYYXS3IOF,1
62,"[False, True, True, True, True, True]","[""How many flights are there per round?"",""True or false: The hidden values will change each time I start a new round."",""How much does it cost to observe each hidden value?"",""How many hidden values am I allowed to observe in each round?"",""Which statement is TRUE?"",""What does the feedback teach me?""]","[""4"",""True"",""$0.10"",""As many or as few as I wish"",""My earnings for each round are equal to the <i>sum</i> of the values of all locations I visit (minus the cost of making observations), and I will be paid the earnings from one of the 12 rounds."",""All of the above.""]",20982,890765,survey-multi-choice,A12X43VFAKMR89,36ZN444YTRY64U2AHH985MYYXS3IOF,1
64,"[True, True, True, True, True, True]","[""How many flights are there per round?"",""True or false: The hidden values will change each time I start a new round."",""How much does it cost to observe each hidden value?"",""How many hidden values am I allowed to observe in each round?"",""Which statement is TRUE?"",""What does the feedback teach me?""]","[""3"",""True"",""$0.10"",""As many or as few as I wish"",""My earnings for each round are equal to the <i>sum</i> of the values of all locations I visit (minus the cost of making observations), and I will be paid the earnings from one of the 12 rounds."",""All of the above.""]",15399,915519,survey-multi-choice,A12X43VFAKMR89,36ZN444YTRY64U2AHH985MYYXS3IOF,1
81,"[False, True, True, True, True, False]","[""How many flights are there per round?"",""True or false: The hidden values will change each time I start a new round."",""How much does it cost to observe each hidden value?"",""How many hidden values am I allowed to observe in each round?"",""Which statement is TRUE?"",""What does the feedback teach me?""]","[""1"",""True"",""$0.10"",""As many or as few as I wish"",""My earnings for each round are equal to the <i>sum</i> of the values of all locations I visit (minus the cost of making observations), and I will be paid the earnings from one of the 12 rounds."",""Whether I chose the move that was best according to the information I had.""]",57259,134336,survey-multi-choice,A13VIJ7G997ZCY,3NQL1CS15R8NKEQCMBHPM2MUJ3VYVY,2
83,"[True, True, True, True, True, False]","[""How many flights are there per round?"",""True or false: The hidden values will change each time I start a new round."",""How much does it cost to observe each hidden value?"",""How many hidden values am I allowed to observe in each round?"",""Which statement is TRUE?"",""What does the feedback teach me?""]","[""3"",""True"",""$0.10"",""As many or as few as I wish"",""My earnings for each round are equal to the <i>sum</i> of the values of all locations I visit (minus the cost of making observations), and I will be paid the earnings from one of the 12 rounds."",""Whether I chose the move that was best according to the information I had.""]",23208,212120,survey-multi-choice,A13VIJ7G997ZCY,3NQL1CS15R8NKEQCMBHPM2MUJ3VYVY,2
85,"[True, True, True, True, True, True]","[""How many flights are there per round?"",""True or false: The hidden values will change each time I start a new round."",""How much does it cost to observe each hidden value?"",""How many hidden values am I allowed to observe in each round?"",""Which statement is TRUE?"",""What does the feedback teach me?""]","[""3"",""True"",""$0.10"",""As many or as few as I wish"",""My earnings for each round are equal to the <i>sum</i> of the values of all locations I visit (minus the cost of making observations), and I will be paid the earnings from one of the 12 rounds."",""All of the above.""]",11209,250793,survey-multi-choice,A13VIJ7G997ZCY,3NQL1CS15R8NKEQCMBHPM2MUJ3VYVY,2
102,"[False, True, False, True, True]","[""How many flights are there per round?"",""True or false: The hidden values will change each time I start a new round."",""How much does it cost to observe each hidden value?"",""How many hidden values am I allowed to observe in each round?"",""Which statement is TRUE?""]","[""1"",""True"",""$0.00"",""As many or as few as I wish"",""My earnings for each round are equal to the <i>sum</i> of the values of all locations I visit (minus the cost of making observations), and I will be paid the earnings from one of the 12 rounds.""]",71353,213082,survey-multi-choice,A154B3Q5DTHN7,3ZPPDN2SLVWRH2WIJ90ZNH5HAZ8E9K,3
104,"[False, True, True, True, True]","[""How many flights are there per round?"",""True or false: The hidden values will change each time I start a new round."",""How much does it cost to observe each hidden value?"",""How many hidden values am I allowed to observe in each round?"",""Which statement is TRUE?""]","[""1"",""True"",""$0.10"",""As many or as few as I wish"",""My earnings for each round are equal to the <i>sum</i> of the values of all locations I visit (minus the cost of making observations), and I will be paid the earnings from one of the 12 rounds.""]",47591,316063,survey-multi-choice,A154B3Q5DTHN7,3ZPPDN2SLVWRH2WIJ90ZNH5HAZ8E9K,3
106,"[True, True, True, True, True]","[""How many flights are there per round?"",""True or false: The hidden values will change each time I start a new round."",""How much does it cost to observe each hidden value?"",""How many hidden values am I allowed to observe in each round?"",""Which statement is TRUE?""]","[""3"",""True"",""$0.10"",""As many or as few as I wish"",""My earnings for each round are equal to the <i>sum</i> of the values of all locations I visit (minus the cost of making observations), and I will be paid the earnings from one of the 12 rounds.""]",51956,460879,survey-multi-choice,A154B3Q5DTHN7,3ZPPDN2SLVWRH2WIJ90ZNH5HAZ8E9K,3
123,"[False, True, True, True, True, True]","[""How many flights are there per round?"",""True or false: The hidden values will change each time I start a new round."",""How much does it cost to observe each hidden value?"",""How many hidden values am I allowed to observe in each round?"",""Which statement is TRUE?"",""What does the feedback teach me?""]","[""1"",""True"",""$0.10"",""As many or as few as I wish"",""My earnings for each round are equal to the <i>sum</i> of the values of all locations I visit (minus the cost of making observations), and I will be paid the earnings from one of the 12 rounds."",""All of the above.""]",42988,197326,survey-multi-choice,A1566PXUS5NDCA,3LEP4MGT3G05DPXFLY3B85IMYOCBD2,4
125,"[False, True, True, True, True, False]","[""How many flights are there per round?"",""True or false: The hidden values will change each time I start a new round."",""How much does it cost to observe each hidden value?"",""How many hidden values am I allowed to observe in each round?"",""Which statement is TRUE?"",""What does the feedback teach me?""]","[""1"",""True"",""$0.10"",""As many or as few as I wish"",""My earnings for each round are equal to the <i>sum</i> of the values of all locations I visit (minus the cost of making observations), and I will be paid the earnings from one of the 12 rounds."",""Whether I chose the move that was best according to the information I had.""]",34371,270772,survey-multi-choice,A1566PXUS5NDCA,3LEP4MGT3G05DPXFLY3B85IMYOCBD2,4
127,"[False, False, True, True, True, True]","[""How many flights are there per round?"",""True or false: The hidden values will change each time I start a new round."",""How much does it cost to observe each hidden value?"",""How many hidden values am I allowed to observe in each round?"",""Which statement is TRUE?"",""What does the feedback teach me?""]","[""1"",""False"",""$0.10"",""As many or as few as I wish"",""My earnings for each round are equal to the <i>sum</i> of the values of all locations I visit (minus the cost of making observations), and I will be paid the earnings from one of the 12 rounds."",""All of the above.""]",59240,385852,survey-multi-choice,A1566PXUS5NDCA,3LEP4MGT3G05DPXFLY3B85IMYOCBD2,4
129,"[False, True, True, True, False, True]","[""How many flights are there per round?"",""True or false: The hidden values will change each time I start a new round."",""How much does it cost to observe each hidden value?"",""How many hidden values am I allowed to observe in each round?"",""Which statement is TRUE?"",""What does the feedback teach me?""]","[""1"",""True"",""$0.10"",""As many or as few as I wish"",""My earnings for each round are equal to the value of one of the locations I visit (minus the cost of making observations), and I will actually be paid the earnings from one of the 12 rounds."",""All of the above.""]",16991,433668,survey-multi-choice,A1566PXUS5NDCA,3LEP4MGT3G05DPXFLY3B85IMYOCBD2,4
131,"[False, True, True, True, True, False]","[""How many flights are there per round?"",""True or false: The hidden values will change each time I start a new round."",""How much does it cost to observe each hidden value?"",""How many hidden values am I allowed to observe in each round?"",""Which statement is TRUE?"",""What does the feedback teach me?""]","[""1"",""True"",""$0.10"",""As many or as few as I wish"",""My earnings for each round are equal to the <i>sum</i> of the values of all locations I visit (minus the cost of making observations), and I will be paid the earnings from one of the 12 rounds."",""Whether I observed the rewards of relevant locations.""]",26464,474107,survey-multi-choice,A1566PXUS5NDCA,3LEP4MGT3G05DPXFLY3B85IMYOCBD2,4
133,"[True, True, True, True, True, True]","[""How many flights are there per round?"",""True or false: The hidden values will change each time I start a new round."",""How much does it cost to observe each hidden value?"",""How many hidden values am I allowed to observe in each round?"",""Which statement is TRUE?"",""What does the feedback teach me?""]","[""3"",""True"",""$0.10"",""As many or as few as I wish"",""My earnings for each round are equal to the <i>sum</i> of the values of all locations I visit (minus the cost of making observations), and I will be paid the earnings from one of the 12 rounds."",""All of the above.""]",16138,527526,survey-multi-choice,A1566PXUS5NDCA,3LEP4MGT3G05DPXFLY3B85IMYOCBD2,4
151,"[False, True, True, True, True, False]","[""How many flights are there per round?"",""True or false: The hidden values will change each time I start a new round."",""How much does it cost to observe each hidden value?"",""How many hidden values am I allowed to observe in each round?"",""Which statement is TRUE?"",""True of false: The duration of the delay tells me how much more money I could have earned by planning and deciding better.""]","[""2"",""True"",""$0.10"",""As many or as few as I wish"",""My earnings for each round are equal to the <i>sum</i> of the values of all locations I visit (minus the cost of making observations), and I will be paid the earnings from one of the 12 rounds."",""False""]",36817,205689,survey-multi-choice,A15V8K8M4TXT9Y,31JLPPHS2UURERKRWE2L1GW9E943OW,5
153,"[False, True, True, True, True, True]","[""How many flights are there per round?"",""True or false: The hidden values will change each time I start a new round."",""How much does it cost to observe each hidden value?"",""How many hidden values am I allowed to observe in each round?"",""Which statement is TRUE?"",""True of false: The duration of the delay tells me how much more money I could have earned by planning and deciding better.""]","[""1"",""True"",""$0.10"",""As many or as few as I wish"",""My earnings for each round are equal to the <i>sum</i> of the values of all locations I visit (minus the cost of making observations), and I will be paid the earnings from one of the 12 rounds."",""True""]",20222,231138,survey-multi-choice,A15V8K8M4TXT9Y,31JLPPHS2UURERKRWE2L1GW9E943OW,5
155,"[False, True, True, True, True, True]","[""How many flights are there per round?"",""True or false: The hidden values will change each time I start a new round."",""How much does it cost to observe each hidden value?"",""How many hidden values am I allowed to observe in each round?"",""Which statement is TRUE?"",""True of false: The duration of the delay tells me how much more money I could have earned by planning and deciding better.""]","[""1"",""True"",""$0.10"",""As many or as few as I wish"",""My earnings for each round are equal to the <i>sum</i> of the values of all locations I visit (minus the cost of making observations), and I will be paid the earnings from one of the 12 rounds."",""True""]",10275,274748,survey-multi-choice,A15V8K8M4TXT9Y,31JLPPHS2UURERKRWE2L1GW9E943OW,5
157,"[True, True, True, True, True, True]","[""How many flights are there per round?"",""True or false: The hidden values will change each time I start a new round."",""How much does it cost to observe each hidden value?"",""How many hidden values am I allowed to observe in each round?"",""Which statement is TRUE?"",""True of false: The duration of the delay tells me how much more money I could have earned by planning and deciding better.""]","[""3"",""True"",""$0.10"",""As many or as few as I wish"",""My earnings for each round are equal to the <i>sum</i> of the values of all locations I visit (minus the cost of making observations), and I will be paid the earnings from one of the 12 rounds."",""True""]",15091,364187,survey-multi-choice,A15V8K8M4TXT9Y,31JLPPHS2UURERKRWE2L1GW9E943OW,5
175,"[False, True, True, True, False, False]","[""How many flights are there per round?"",""True or false: The hidden values will change each time I start a new round."",""How much does it cost to observe each hidden value?"",""How many hidden values am I allowed to observe in each round?"",""Which statement is TRUE?"",""True of false: The duration of the delay tells me how much more money I could have earned by planning and deciding better.""]","[""1"",""True"",""$0.10"",""As many or as few as I wish"",""My earnings for each round are equal to the value of one of the locations I visit (minus the cost of making observations), and I will actually be paid the earnings from one of the 12 rounds."",""False""]",50256,262354,survey-multi-choice,A16SR2HQIWRFD6,3OWEPKL089CRXPL2XB5YZ88KT2NN7A,6
177,"[False, True, True, True, True, True]","[""How many flights are there per round?"",""True or false: The hidden values will change each time I start a new round."",""How much does it cost to observe each hidden value?"",""How many hidden values am I allowed to observe in each round?"",""Which statement is TRUE?"",""True of false: The duration of the delay tells me how much more money I could have earned by planning and deciding better.""]","[""1"",""True"",""$0.10"",""As many or as few as I wish"",""My earnings for each round are equal to the <i>sum</i> of the values of all locations I visit (minus the cost of making observations), and I will be paid the earnings from one of the 12 rounds."",""True""]",36609,437915,survey-multi-choice,A16SR2HQIWRFD6,3OWEPKL089CRXPL2XB5YZ88KT2NN7A,6
179,"[False, True, True, True, False, True]","[""How many flights are there per round?"",""True or false: The hidden values will change each time I start a new round."",""How much does it cost to observe each hidden value?"",""How many hidden values am I allowed to observe in each round?"",""Which statement is TRUE?"",""True of false: The duration of the delay tells me how much more money I could have earned by planning and deciding better.""]","[""1"",""True"",""$0.10"",""As many or as few as I wish"",""My earnings for each round are equal to the value of one of the locations I visit (minus the cost of making observations), and I will actually be paid the earnings from one of the 12 rounds."",""True""]",23969,468596,survey-multi-choice,A16SR2HQIWRFD6,3OWEPKL089CRXPL2XB5YZ88KT2NN7A,6
181,"[False, True, True, True, False, True]","[""How many flights are there per round?"",""True or false: The hidden values will change each time I start a new round."",""How much does it cost to observe each hidden value?"",""How many hidden values am I allowed to observe in each round?"",""Which statement is TRUE?"",""True of false: The duration of the delay tells me how much more money I could have earned by planning and deciding better.""]","[""2"",""True"",""$0.10"",""As many or as few as I wish"",""My earnings for each round are equal to the value of one of the locations I visit (minus the cost of making observations), and I will actually be paid the earnings from one of the 12 rounds."",""True""]",26183,501190,survey-multi-choice,A16SR2HQIWRFD6,3OWEPKL089CRXPL2XB5YZ88KT2NN7A,6
183,"[False, True, True, True, True, True]","[""How many flights are there per round?"",""True or false: The hidden values will change each time I start a new round."",""How much does it cost to observe each hidden value?"",""How many hidden values am I allowed to observe in each round?"",""Which statement is TRUE?"",""True of false: The duration of the delay tells me how much more money I could have earned by planning and deciding better.""]","[""1"",""True"",""$0.10"",""As many or as few as I wish"",""My earnings for each round are equal to the <i>sum</i> of the values of all locations I visit (minus the cost of making observations), and I will be paid the earnings from one of the 12 rounds."",""True""]",19464,533239,survey-multi-choice,A16SR2HQIWRFD6,3OWEPKL089CRXPL2XB5YZ88KT2NN7A,6
185,"[False, True, True, True, False, True]","[""How many flights are there per round?"",""True or false: The hidden values will change each time I start a new round."",""How much does it cost to observe each hidden value?"",""How many hidden values am I allowed to observe in each round?"",""Which statement is TRUE?"",""True of false: The duration of the delay tells me how much more money I could have earned by planning and deciding better.""]","[""1"",""True"",""$0.10"",""As many or as few as I wish"",""My earnings for each round are equal to the value of one of the locations I visit (minus the cost of making observations), and I will actually be paid the earnings from one of the 12 rounds."",""True""]",16145,555970,survey-multi-choice,A16SR2HQIWRFD6,3OWEPKL089CRXPL2XB5YZ88KT2NN7A,6
187,"[False, True, True, True, True, True]","[""How many flights are there per round?"",""True or false: The hidden values will change each time I start a new round."",""How much does it cost to observe each hidden value?"",""How many hidden values am I allowed to observe in each round?"",""Which statement is TRUE?"",""True of false: The duration of the delay tells me how much more money I could have earned by planning and deciding better.""]","[""1"",""True"",""$0.10"",""As many or as few as I wish"",""My earnings for each round are equal to the <i>sum</i> of the values of all locations I visit (minus the cost of making observations), and I will be paid the earnings from one of the 12 rounds."",""True""]",32651,622658,survey-multi-choice,A16SR2HQIWRFD6,3OWEPKL089CRXPL2XB5YZ88KT2NN7A,6
189,"[False, True, True, True, False, True]","[""How many flights are there per round?"",""True or false: The hidden values will change each time I start a new round."",""How much does it cost to observe each hidden value?"",""How many hidden values am I allowed to observe in each round?"",""Which statement is TRUE?"",""True of false: The duration of the delay tells me how much more money I could have earned by planning and deciding better.""]","[""2"",""True"",""$0.10"",""As many or as few as I wish"",""My earnings for each round are equal to the value of one of the locations I visit (minus the cost of making observations), and I will actually be paid the earnings from one of the 12 rounds."",""True""]",9308,665531,survey-multi-choice,A16SR2HQIWRFD6,3OWEPKL089CRXPL2XB5YZ88KT2NN7A,6
191,"[False, True, True, True, True, True]","[""How many flights are there per round?"",""True or false: The hidden values will change each time I start a new round."",""How much does it cost to observe each hidden value?"",""How many hidden values am I allowed to observe in each round?"",""Which statement is TRUE?"",""True of false: The duration of the delay tells me how much more money I could have earned by planning and deciding better.""]","[""2"",""True"",""$0.10"",""As many or as few as I wish"",""My earnings for each round are equal to the <i>sum</i> of the values of all locations I visit (minus the cost of making observations), and I will be paid the earnings from one of the 12 rounds."",""True""]",10296,682194,survey-multi-choice,A16SR2HQIWRFD6,3OWEPKL089CRXPL2XB5YZ88KT2NN7A,6
193,"[True, True, True, True, False, True]","[""How many flights are there per round?"",""True or false: The hidden values will change each time I start a new round."",""How much does it cost to observe each hidden value?"",""How many hidden values am I allowed to observe in each round?"",""Which statement is TRUE?"",""True of false: The duration of the delay tells me how much more money I could have earned by planning and deciding better.""]","[""3"",""True"",""$0.10"",""As many or as few as I wish"",""My earnings for each round are equal to the value of one of the locations I visit (minus the cost of making observations), and I will actually be paid the earnings from one of the 12 rounds."",""True""]",10734,711405,survey-multi-choice,A16SR2HQIWRFD6,3OWEPKL089CRXPL2XB5YZ88KT2NN7A,6
195,"[False, True, True, True, False, False]","[""How many flights are there per round?"",""True or false: The hidden values will change each time I start a new round."",""How much does it cost to observe each hidden value?"",""How many hidden values am I allowed to observe in each round?"",""Which statement is TRUE?"",""True of false: The duration of the delay tells me how much more money I could have earned by planning and deciding better.""]","[""2"",""True"",""$0.10"",""As many or as few as I wish"",""My earnings for each round are equal to the value of one of the locations I visit (minus the cost of making observations), and I will actually be paid the earnings from one of the 12 rounds."",""False""]",15704,733589,survey-multi-choice,A16SR2HQIWRFD6,3OWEPKL089CRXPL2XB5YZ88KT2NN7A,6
197,"[False, True, False, False, False, True]","[""How many flights are there per round?"",""True or false: The hidden values will change each time I start a new round."",""How much does it cost to observe each hidden value?"",""How many hidden values am I allowed to observe in each round?"",""Which statement is TRUE?"",""True of false: The duration of the delay tells me how much more money I could have earned by planning and deciding better.""]","[""1"",""True"",""$0.00"",""At most 1"",""My earnings for each round are equal to the value of one of the locations I visit (minus the cost of making observations), and I will actually be paid the earnings from one of the 12 rounds."",""True""]",5290,744546,survey-multi-choice,A16SR2HQIWRFD6,3OWEPKL089CRXPL2XB5YZ88KT2NN7A,6
199,"[False, False, False, False, False, True]","[""How many flights are there per round?"",""True or false: The hidden values will change each time I start a new round."",""How much does it cost to observe each hidden value?"",""How many hidden values am I allowed to observe in each round?"",""Which statement is TRUE?"",""True of false: The duration of the delay tells me how much more money I could have earned by planning and deciding better.""]","[""1"",""False"",""$0.00"",""At most 1"",""My earnings for each round are equal to the value of one of the locations I visit (minus the cost of making observations), and I will actually be paid the earnings from one of the 12 rounds."",""True""]",6696,756779,survey-multi-choice,A16SR2HQIWRFD6,3OWEPKL089CRXPL2XB5YZ88KT2NN7A,6
201,"[False, True, False, False, False, True]","[""How many flights are there per round?"",""True or false: The hidden values will change each time I start a new round."",""How much does it cost to observe each hidden value?"",""How many hidden values am I allowed to observe in each round?"",""Which statement is TRUE?"",""True of false: The duration of the delay tells me how much more money I could have earned by planning and deciding better.""]","[""2"",""True"",""$0.00"",""At most 1"",""My earnings for each round are equal to the value of one of the locations I visit (minus the cost of making observations), and I will actually be paid the earnings from one of the 12 rounds."",""True""]",11649,774374,survey-multi-choice,A16SR2HQIWRFD6,3OWEPKL089CRXPL2XB5YZ88KT2NN7A,6
203,"[False, True, True, True, False, True]","[""How many flights are there per round?"",""True or false: The hidden values will change each time I start a new round."",""How much does it cost to observe each hidden value?"",""How many hidden values am I allowed to observe in each round?"",""Which statement is TRUE?"",""True of false: The duration of the delay tells me how much more money I could have earned by planning and deciding better.""]","[""1"",""True"",""$0.10"",""As many or as few as I wish"",""My earnings for each round are equal to the value of one of the locations I visit (minus the cost of making observations), and I will actually be paid the earnings from one of the 12 rounds."",""True""]",24739,804963,survey-multi-choice,A16SR2HQIWRFD6,3OWEPKL089CRXPL2XB5YZ88KT2NN7A,6
205,"[False, True, True, True, False, True]","[""How many flights are there per round?"",""True or false: The hidden values will change each time I start a new round."",""How much does it cost to observe each hidden value?"",""How many hidden values am I allowed to observe in each round?"",""Which statement is TRUE?"",""True of false: The duration of the delay tells me how much more money I could have earned by planning and deciding better.""]","[""2"",""True"",""$0.10"",""As many or as few as I wish"",""My earnings for each round are equal to the value of one of the locations I visit (minus the cost of making observations), and I will actually be paid the earnings from one of the 12 rounds."",""True""]",6575,816861,survey-multi-choice,A16SR2HQIWRFD6,3OWEPKL089CRXPL2XB5YZ88KT2NN7A,6
207,"[True, True, True, True, False, True]","[""How many flights are there per round?"",""True or false: The hidden values will change each time I start a new round."",""How much does it cost to observe each hidden value?"",""How many hidden values am I allowed to observe in each round?"",""Which statement is TRUE?"",""True of false: The duration of the delay tells me how much more money I could have earned by planning and deciding better.""]","[""3"",""True"",""$0.10"",""As many or as few as I wish"",""My earnings for each round are equal to the value of one of the locations I visit (minus the cost of making observations), and I will actually be paid the earnings from one of the 12 rounds."",""True""]",6833,828957,survey-multi-choice,A16SR2HQIWRFD6,3OWEPKL089CRXPL2XB5YZ88KT2NN7A,6
209,"[False, True, True, True, False, True]","[""How many flights are there per round?"",""True or false: The hidden values will change each time I start a new round."",""How much does it cost to observe each hidden value?"",""How many hidden values am I allowed to observe in each round?"",""Which statement is TRUE?"",""True of false: The duration of the delay tells me how much more money I could have earned by planning and deciding better.""]","[""4"",""True"",""$0.10"",""As many or as few as I wish"",""My earnings for each round are equal to the value of one of the locations I visit (minus the cost of making observations), and I will actually be paid the earnings from one of the 12 rounds."",""True""]",11718,845959,survey-multi-choice,A16SR2HQIWRFD6,3OWEPKL089CRXPL2XB5YZ88KT2NN7A,6
211,"[False, True, True, True, False, True]","[""How many flights are there per round?"",""True or false: The hidden values will change each time I start a new round."",""How much does it cost to observe each hidden value?"",""How many hidden values am I allowed to observe in each round?"",""Which statement is TRUE?"",""True of false: The duration of the delay tells me how much more money I could have earned by planning and deciding better.""]","[""1"",""True"",""$0.10"",""As many or as few as I wish"",""My earnings for each round are equal to the value of one of the locations I visit (minus the cost of making observations), but these earnings aren't real money."",""True""]",11133,863025,survey-multi-choice,A16SR2HQIWRFD6,3OWEPKL089CRXPL2XB5YZ88KT2NN7A,6
213,"[False, True, True, True, True, True]","[""How many flights are there per round?"",""True or false: The hidden values will change each time I start a new round."",""How much does it cost to observe each hidden value?"",""How many hidden values am I allowed to observe in each round?"",""Which statement is TRUE?"",""True of false: The duration of the delay tells me how much more money I could have earned by planning and deciding better.""]","[""1"",""True"",""$0.10"",""As many or as few as I wish"",""My earnings for each round are equal to the <i>sum</i> of the values of all locations I visit (minus the cost of making observations), and I will be paid the earnings from one of the 12 rounds."",""True""]",8322,877375,survey-multi-choice,A16SR2HQIWRFD6,3OWEPKL089CRXPL2XB5YZ88KT2NN7A,6
215,"[False, True, True, True, False, True]","[""How many flights are there per round?"",""True or false: The hidden values will change each time I start a new round."",""How much does it cost to observe each hidden value?"",""How many hidden values am I allowed to observe in each round?"",""Which statement is TRUE?"",""True of false: The duration of the delay tells me how much more money I could have earned by planning and deciding better.""]","[""1"",""True"",""$0.10"",""As many or as few as I wish"",""My earnings for each round are equal to the <i>sum</i> of the values of all locations I visit (minus the cost of making observations), but these earnings aren't real money."",""True""]",6016,888388,survey-multi-choice,A16SR2HQIWRFD6,3OWEPKL089CRXPL2XB5YZ88KT2NN7A,6
217,"[False, True, True, True, False, True]","[""How many flights are there per round?"",""True or false: The hidden values will change each time I start a new round."",""How much does it cost to observe each hidden value?"",""How many hidden values am I allowed to observe in each round?"",""Which statement is TRUE?"",""True of false: The duration of the delay tells me how much more money I could have earned by planning and deciding better.""]","[""2"",""True"",""$0.10"",""As many or as few as I wish"",""My earnings for each round are equal to the value of one of the locations I visit (minus the cost of making observations), and I will actually be paid the earnings from one of the 12 rounds."",""True""]",5948,899974,survey-multi-choice,A16SR2HQIWRFD6,3OWEPKL089CRXPL2XB5YZ88KT2NN7A,6
219,"[False, True, True, True, False, True]","[""How many flights are there per round?"",""True or false: The hidden values will change each time I start a new round."",""How much does it cost to observe each hidden value?"",""How many hidden values am I allowed to observe in each round?"",""Which statement is TRUE?"",""True of false: The duration of the delay tells me how much more money I could have earned by planning and deciding better.""]","[""2"",""True"",""$0.10"",""As many or as few as I wish"",""My earnings for each round are equal to the value of one of the locations I visit (minus the cost of making observations), but these earnings aren't real money."",""True""]",5650,911308,survey-multi-choice,A16SR2HQIWRFD6,3OWEPKL089CRXPL2XB5YZ88KT2NN7A,6
221,"[False, True, True, True, True, True]","[""How many flights are there per round?"",""True or false: The hidden values will change each time I start a new round."",""How much does it cost to observe each hidden value?"",""How many hidden values am I allowed to observe in each round?"",""Which statement is TRUE?"",""True of false: The duration of the delay tells me how much more money I could have earned by planning and deciding better.""]","[""2"",""True"",""$0.10"",""As many or as few as I wish"",""My earnings for each round are equal to the <i>sum</i> of the values of all locations I visit (minus the cost of making observations), and I will be paid the earnings from one of the 12 rounds."",""True""]",9714,925980,survey-multi-choice,A16SR2HQIWRFD6,3OWEPKL089CRXPL2XB5YZ88KT2NN7A,6
223,"[False, True, True, True, False, True]","[""How many flights are there per round?"",""True or false: The hidden values will change each time I start a new round."",""How much does it cost to observe each hidden value?"",""How many hidden values am I allowed to observe in each round?"",""Which statement is TRUE?"",""True of false: The duration of the delay tells me how much more money I could have earned by planning and deciding better.""]","[""2"",""True"",""$0.10"",""As many or as few as I wish"",""My earnings for each round are equal to the <i>sum</i> of the values of all locations I visit (minus the cost of making observations), but these earnings aren't real money."",""True""]",9550,941402,survey-multi-choice,A16SR2HQIWRFD6,3OWEPKL089CRXPL2XB5YZ88KT2NN7A,6
225,"[True, True, True, True, False, True]","[""How many flights are there per round?"",""True or false: The hidden values will change each time I start a new round."",""How much does it cost to observe each hidden value?"",""How many hidden values am I allowed to observe in each round?"",""Which statement is TRUE?"",""True of false: The duration of the delay tells me how much more money I could have earned by planning and deciding better.""]","[""3"",""True"",""$0.10"",""As many or as few as I wish"",""My earnings for each round are equal to the value of one of the locations I visit (minus the cost of making observations), and I will actually be paid the earnings from one of the 12 rounds."",""True""]",5195,951746,survey-multi-choice,A16SR2HQIWRFD6,3OWEPKL089CRXPL2XB5YZ88KT2NN7A,6
227,"[True, True, True, True, False, True]","[""How many flights are there per round?"",""True or false: The hidden values will change each time I start a new round."",""How much does it cost to observe each hidden value?"",""How many hidden values am I allowed to observe in each round?"",""Which statement is TRUE?"",""True of false: The duration of the delay tells me how much more money I could have earned by planning and deciding better.""]","[""3"",""True"",""$0.10"",""As many or as few as I wish"",""My earnings for each round are equal to the value of one of the locations I visit (minus the cost of making observations), but these earnings aren't real money."",""True""]",7602,965215,survey-multi-choice,A16SR2HQIWRFD6,3OWEPKL089CRXPL2XB5YZ88KT2NN7A,6
229,"[True, True, True, True, True, True]","[""How many flights are there per round?"",""True or false: The hidden values will change each time I start a new round."",""How much does it cost to observe each hidden value?"",""How many hidden values am I allowed to observe in each round?"",""Which statement is TRUE?"",""True of false: The duration of the delay tells me how much more money I could have earned by planning and deciding better.""]","[""3"",""True"",""$0.10"",""As many or as few as I wish"",""My earnings for each round are equal to the <i>sum</i> of the values of all locations I visit (minus the cost of making observations), and I will be paid the earnings from one of the 12 rounds."",""True""]",18891,992153,survey-multi-choice,A16SR2HQIWRFD6,3OWEPKL089CRXPL2XB5YZ88KT2NN7A,6
247,"[False, True, True, False, True]","[""How many flights are there per round?"",""True or false: The hidden values will change each time I start a new round."",""How much does it cost to observe each hidden value?"",""How many hidden values am I allowed to observe in each round?"",""Which statement is TRUE?""]","[""1"",""True"",""$0.10"",""At most 1"",""My earnings for each round are equal to the <i>sum</i> of the values of all locations I visit (minus the cost of making observations), and I will be paid the earnings from one of the 12 rounds.""]",47075,198515,survey-multi-choice,A17F06M11XQX6S,3OVHNO1VE611VN0VRCJEUNPPPRYZDW,7
249,"[False, True, True, True, True]","[""How many flights are there per round?"",""True or false: The hidden values will change each time I start a new round."",""How much does it cost to observe each hidden value?"",""How many hidden values am I allowed to observe in each round?"",""Which statement is TRUE?""]","[""1"",""True"",""$0.10"",""As many or as few as I wish"",""My earnings for each round are equal to the <i>sum</i> of the values of all locations I visit (minus the cost of making observations), and I will be paid the earnings from one of the 12 rounds.""]",35970,262532,survey-multi-choice,A17F06M11XQX6S,3OVHNO1VE611VN0VRCJEUNPPPRYZDW,7
251,"[False, True, True, True, True]","[""How many flights are there per round?"",""True or false: The hidden values will change each time I start a new round."",""How much does it cost to observe each hidden value?"",""How many hidden values am I allowed to observe in each round?"",""Which statement is TRUE?""]","[""1"",""True"",""$0.10"",""As many or as few as I wish"",""My earnings for each round are equal to the <i>sum</i> of the values of all locations I visit (minus the cost of making observations), and I will be paid the earnings from one of the 12 rounds.""]",25656,317378,survey-multi-choice,A17F06M11XQX6S,3OVHNO1VE611VN0VRCJEUNPPPRYZDW,7
253,"[False, True, True, True, True]","[""How many flights are there per round?"",""True or false: The hidden values will change each time I start a new round."",""How much does it cost to observe each hidden value?"",""How many hidden values am I allowed to observe in each round?"",""Which statement is TRUE?""]","[""2"",""True"",""$0.10"",""As many or as few as I wish"",""My earnings for each round are equal to the <i>sum</i> of the values of all locations I visit (minus the cost of making observations), and I will be paid the earnings from one of the 12 rounds.""]",19799,363154,survey-multi-choice,A17F06M11XQX6S,3OVHNO1VE611VN0VRCJEUNPPPRYZDW,7
255,"[True, True, True, True, True]","[""How many flights are there per round?"",""True or false: The hidden values will change each time I start a new round."",""How much does it cost to observe each hidden value?"",""How many hidden values am I allowed to observe in each round?"",""Which statement is TRUE?""]","[""3"",""True"",""$0.10"",""As many or as few as I wish"",""My earnings for each round are equal to the <i>sum</i> of the values of all locations I visit (minus the cost of making observations), and I will be paid the earnings from one of the 12 rounds.""]",22887,437468,survey-multi-choice,A17F06M11XQX6S,3OVHNO1VE611VN0VRCJEUNPPPRYZDW,7
272,"[True, True, True, True, True, True]","[""How many flights are there per round?"",""True or false: The hidden values will change each time I start a new round."",""How much does it cost to observe each hidden value?"",""How many hidden values am I allowed to observe in each round?"",""Which statement is TRUE?"",""True of false: The duration of the delay tells me how much more money I could have earned by planning and deciding better.""]","[""3"",""True"",""$0.10"",""As many or as few as I wish"",""My earnings for each round are equal to the <i>sum</i> of the values of all locations I visit (minus the cost of making observations), and I will be paid the earnings from one of the 12 rounds."",""True""]",70990,155763,survey-multi-choice,A17Z6G1TRE4322,3TAYZSBPLL8HR1G1ZV5P2B1I5K6S26,8
290,"[False, True, True, True, True, False]","[""How many flights are there per round?"",""True or false: The hidden values will change each time I start a new round."",""How much does it cost to observe each hidden value?"",""How many hidden values am I allowed to observe in each round?"",""Which statement is TRUE?"",""What does the feedback teach me?""]","[""1"",""True"",""$0.10"",""As many or as few as I wish"",""My earnings for each round are equal to the <i>sum</i> of the values of all locations I visit (minus the cost of making observations), and I will be paid the earnings from one of the 12 rounds."",""The duration of the delay tells me how much more money I could have earned by planning and deciding better.""]",167533,330307,survey-multi-choice,A19WXS1CLVLEEX,3WJ1OXY92AGODKWWYCSZR2KF5ERA8V,9
292,"[False, True, True, True, False, True]","[""How many flights are there per round?"",""True or false: The hidden values will change each time I start a new round."",""How much does it cost to observe each hidden value?"",""How many hidden values am I allowed to observe in each round?"",""Which statement is TRUE?"",""What does the feedback teach me?""]","[""1"",""True"",""$0.10"",""As many or as few as I wish"",""My earnings for each round are equal to the value of one of the locations I visit (minus the cost of making observations), and I will actually be paid the earnings from one of the 12 rounds."",""All of the above.""]",29443,491670,survey-multi-choice,A19WXS1CLVLEEX,3WJ1OXY92AGODKWWYCSZR2KF5ERA8V,9
294,"[True, True, True, True, False, True]","[""How many flights are there per round?"",""True or false: The hidden values will change each time I start a new round."",""How much does it cost to observe each hidden value?"",""How many hidden values am I allowed to observe in each round?"",""Which statement is TRUE?"",""What does the feedback teach me?""]","[""3"",""True"",""$0.10"",""As many or as few as I wish"",""My earnings for each round are equal to the <i>sum</i> of the values of all locations I visit (minus the cost of making observations), but these earnings aren't real money."",""All of the above.""]",47441,546272,survey-multi-choice,A19WXS1CLVLEEX,3WJ1OXY92AGODKWWYCSZR2KF5ERA8V,9
296,"[True, True, True, True, True, False]","[""How many flights are there per round?"",""True or false: The hidden values will change each time I start a new round."",""How much does it cost to observe each hidden value?"",""How many hidden values am I allowed to observe in each round?"",""Which statement is TRUE?"",""What does the feedback teach me?""]","[""3"",""True"",""$0.10"",""As many or as few as I wish"",""My earnings for each round are equal to the <i>sum</i> of the values of all locations I visit (minus the cost of making observations), and I will be paid the earnings from one of the 12 rounds."",""Whether I chose the move that was best according to the information I had.""]",38727,592145,survey-multi-choice,A19WXS1CLVLEEX,3WJ1OXY92AGODKWWYCSZR2KF5ERA8V,9
298,"[True, True, True, True, True, True]","[""How many flights are there per round?"",""True or false: The hidden values will change each time I start a new round."",""How much does it cost to observe each hidden value?"",""How many hidden values am I allowed to observe in each round?"",""Which statement is TRUE?"",""What does the feedback teach me?""]","[""3"",""True"",""$0.10"",""As many or as few as I wish"",""My earnings for each round are equal to the <i>sum</i> of the values of all locations I visit (minus the cost of making observations), and I will be paid the earnings from one of the 12 rounds."",""All of the above.""]",28743,625836,survey-multi-choice,A19WXS1CLVLEEX,3WJ1OXY92AGODKWWYCSZR2KF5ERA8V,9
315,"[False, True, True, True, False]","[""How many flights are there per round?"",""True or false: The hidden values will change each time I start a new round."",""How much does it cost to observe each hidden value?"",""How many hidden values am I allowed to observe in each round?"",""Which statement is TRUE?""]","[""1"",""True"",""$0.10"",""As many or as few as I wish"",""My earnings for each round are equal to the value of one of the locations I visit (minus the cost of making observations), and I will actually be paid the earnings from one of the 12 rounds.""]",30509,119594,survey-multi-choice,A1AHYAWHM0ML7H,3PXX5PX6LXY7FIU31OC9I4AGDKEBAX,10
317,"[False, True, True, True, True]","[""How many flights are there per round?"",""True or false: The hidden values will change each time I start a new round."",""How much does it cost to observe each hidden value?"",""How many hidden values am I allowed to observe in each round?"",""Which statement is TRUE?""]","[""2"",""True"",""$0.10"",""As many or as few as I wish"",""My earnings for each round are equal to the <i>sum</i> of the values of all locations I visit (minus the cost of making observations), and I will be paid the earnings from one of the 12 rounds.""]",33952,207060,survey-multi-choice,A1AHYAWHM0ML7H,3PXX5PX6LXY7FIU31OC9I4AGDKEBAX,10
319,"[False, True, True, True, True]","[""How many flights are there per round?"",""True or false: The hidden values will change each time I start a new round."",""How much does it cost to observe each hidden value?"",""How many hidden values am I allowed to observe in each round?"",""Which statement is TRUE?""]","[""1"",""True"",""$0.10"",""As many or as few as I wish"",""My earnings for each round are equal to the <i>sum</i> of the values of all locations I visit (minus the cost of making observations), and I will be paid the earnings from one of the 12 rounds.""]",27913,245595,survey-multi-choice,A1AHYAWHM0ML7H,3PXX5PX6LXY7FIU31OC9I4AGDKEBAX,10
321,"[False, True, True, True, True]","[""How many flights are there per round?"",""True or false: The hidden values will change each time I start a new round."",""How much does it cost to observe each hidden value?"",""How many hidden values am I allowed to observe in each round?"",""Which statement is TRUE?""]","[""1"",""True"",""$0.10"",""As many or as few as I wish"",""My earnings for each round are equal to the <i>sum</i> of the values of all locations I visit (minus the cost of making observations), and I will be paid the earnings from one of the 12 rounds.""]",21331,276748,survey-multi-choice,A1AHYAWHM0ML7H,3PXX5PX6LXY7FIU31OC9I4AGDKEBAX,10
323,"[False, True, True, True, False]","[""How many flights are there per round?"",""True or false: The hidden values will change each time I start a new round."",""How much does it cost to observe each hidden value?"",""How many hidden values am I allowed to observe in each round?"",""Which statement is TRUE?""]","[""1"",""True"",""$0.10"",""As many or as few as I wish"",""My earnings for each round are equal to the value of one of the locations I visit (minus the cost of making observations), and I will actually be paid the earnings from one of the 12 rounds.""]",15189,319327,survey-multi-choice,A1AHYAWHM0ML7H,3PXX5PX6LXY7FIU31OC9I4AGDKEBAX,10
325,"[True, True, True, True, True]","[""How many flights are there per round?"",""True or false: The hidden values will change each time I start a new round."",""How much does it cost to observe each hidden value?"",""How many hidden values am I allowed to observe in each round?"",""Which statement is TRUE?""]","[""3"",""True"",""$0.10"",""As many or as few as I wish"",""My earnings for each round are equal to the <i>sum</i> of the values of all locations I visit (minus the cost of making observations), and I will be paid the earnings from one of the 12 rounds.""]",16099,394609,survey-multi-choice,A1AHYAWHM0ML7H,3PXX5PX6LXY7FIU31OC9I4AGDKEBAX,10
342,"[True, True, True, True, True, True]","[""How many flights are there per round?"",""True or false: The hidden values will change each time I start a new round."",""How much does it cost to observe each hidden value?"",""How many hidden values am I allowed to observe in each round?"",""Which statement is TRUE?"",""True of false: The duration of the delay tells me how much more money I could have earned by planning and deciding better.""]","[""3"",""True"",""$0.10"",""As many or as few as I wish"",""My earnings for each round are equal to the <i>sum</i> of the values of all locations I visit (minus the cost of making observations), and I will be paid the earnings from one of the 12 rounds."",""True""]",47068,139302,survey-multi-choice,A1ALBJU1XOKYFH,3CN4LGXD5XOOQ17X2FG2DCMH6JZY4N,11
360,"[False, True, True, True, True]","[""How many flights are there per round?"",""True or false: The hidden values will change each time I start a new round."",""How much does it cost to observe each hidden value?"",""How many hidden values am I allowed to observe in each round?"",""Which statement is TRUE?""]","[""1"",""True"",""$0.10"",""As many or as few as I wish"",""My earnings for each round are equal to the <i>sum</i> of the values of all locations I visit (minus the cost of making observations), and I will be paid the earnings from one of the 12 rounds.""]",36204,137500,survey-multi-choice,A1BJCRGERW6Z6Y,3COPXFW7XBCFVP4ZWK7Z72I1Z1OPKE,12
362,"[True, True, True, True, True]","[""How many flights are there per round?"",""True or false: The hidden values will change each time I start a new round."",""How much does it cost to observe each hidden value?"",""How many hidden values am I allowed to observe in each round?"",""Which statement is TRUE?""]","[""3"",""True"",""$0.10"",""As many or as few as I wish"",""My earnings for each round are equal to the <i>sum</i> of the values of all locations I visit (minus the cost of making observations), and I will be paid the earnings from one of the 12 rounds.""]",115278,302125,survey-multi-choice,A1BJCRGERW6Z6Y,3COPXFW7XBCFVP4ZWK7Z72I1Z1OPKE,12
379,"[True, True, True, True, True, True]","[""How many flights are there per round?"",""True or false: The hidden values will change each time I start a new round."",""How much does it cost to observe each hidden value?"",""How many hidden values am I allowed to observe in each round?"",""Which statement is TRUE?"",""What does the feedback teach me?""]","[""3"",""True"",""$0.10"",""As many or as few as I wish"",""My earnings for each round are equal to the <i>sum</i> of the values of all locations I visit (minus the cost of making observations), and I will be paid the earnings from one of the 12 rounds."",""All of the above.""]",78485,215967,survey-multi-choice,A1D36KAPWAUPTJ,3TVSS0C0E104IHRN2FZM0NDTBBIWTM,13
396,"[False, True, False, True, False, False]","[""How many flights are there per round?"",""True or false: The hidden values will change each time I start a new round."",""How much does it cost to observe each hidden value?"",""How many hidden values am I allowed to observe in each round?"",""Which statement is TRUE?"",""True of false: The duration of the delay tells me how much more money I could have earned by planning and deciding better.""]","[""4"",""True"",""$0.00"",""As many or as few as I wish"",""My earnings for each round are equal to the value of one of the locations I visit (minus the cost of making observations), and I will actually be paid the earnings from one of the 12 rounds."",""False""]",28782,99233,survey-multi-choice,A1DC5MIXX6SMUJ,3W92K5RLWUHPIQGSB9CSB5O1OZU5VU,14
398,"[False, True, False, True, True, False]","[""How many flights are there per round?"",""True or false: The hidden values will change each time I start a new round."",""How much does it cost to observe each hidden value?"",""How many hidden values am I allowed to observe in each round?"",""Which statement is TRUE?"",""True of false: The duration of the delay tells me how much more money I could have earned by planning and deciding better.""]","[""4"",""True"",""$0.00"",""As many or as few as I wish"",""My earnings for each round are equal to the <i>sum</i> of the values of all locations I visit (minus the cost of making observations), and I will be paid the earnings from one of the 12 rounds."",""False""]",28961,174470,survey-multi-choice,A1DC5MIXX6SMUJ,3W92K5RLWUHPIQGSB9CSB5O1OZU5VU,14
400,"[False, True, True, True, True, False]","[""How many flights are there per round?"",""True or false: The hidden values will change each time I start a new round."",""How much does it cost to observe each hidden value?"",""How many hidden values am I allowed to observe in each round?"",""Which statement is TRUE?"",""True of false: The duration of the delay tells me how much more money I could have earned by planning and deciding better.""]","[""4"",""True"",""$0.10"",""As many or as few as I wish"",""My earnings for each round are equal to the <i>sum</i> of the values of all locations I visit (minus the cost of making observations), and I will be paid the earnings from one of the 12 rounds."",""False""]",24514,218386,survey-multi-choice,A1DC5MIXX6SMUJ,3W92K5RLWUHPIQGSB9CSB5O1OZU5VU,14
402,"[False, True, True, True, False, True]","[""How many flights are there per round?"",""True or false: The hidden values will change each time I start a new round."",""How much does it cost to observe each hidden value?"",""How many hidden values am I allowed to observe in each round?"",""Which statement is TRUE?"",""True of false: The duration of the delay tells me how much more money I could have earned by planning and deciding better.""]","[""4"",""True"",""$0.10"",""As many or as few as I wish"",""My earnings for each round are equal to the value of one of the locations I visit (minus the cost of making observations), and I will actually be paid the earnings from one of the 12 rounds."",""True""]",18958,281766,survey-multi-choice,A1DC5MIXX6SMUJ,3W92K5RLWUHPIQGSB9CSB5O1OZU5VU,14
404,"[False, True, True, False, False, True]","[""How many flights are there per round?"",""True or false: The hidden values will change each time I start a new round."",""How much does it cost to observe each hidden value?"",""How many hidden values am I allowed to observe in each round?"",""Which statement is TRUE?"",""True of false: The duration of the delay tells me how much more money I could have earned by planning and deciding better.""]","[""4"",""True"",""$0.10"",""At most 15"",""My earnings for each round are equal to the value of one of the locations I visit (minus the cost of making observations), and I will actually be paid the earnings from one of the 12 rounds."",""True""]",17992,331567,survey-multi-choice,A1DC5MIXX6SMUJ,3W92K5RLWUHPIQGSB9CSB5O1OZU5VU,14
406,"[False, True, True, True, False, True]","[""How many flights are there per round?"",""True or false: The hidden values will change each time I start a new round."",""How much does it cost to observe each hidden value?"",""How many hidden values am I allowed to observe in each round?"",""Which statement is TRUE?"",""True of false: The duration of the delay tells me how much more money I could have earned by planning and deciding better.""]","[""1"",""True"",""$0.10"",""As many or as few as I wish"",""My earnings for each round are equal to the value of one of the locations I visit (minus the cost of making observations), and I will actually be paid the earnings from one of the 12 rounds."",""True""]",11672,358358,survey-multi-choice,A1DC5MIXX6SMUJ,3W92K5RLWUHPIQGSB9CSB5O1OZU5VU,14
408,"[False, True, True, True, True, True]","[""How many flights are there per round?"",""True or false: The hidden values will change each time I start a new round."",""How much does it cost to observe each hidden value?"",""How many hidden values am I allowed to observe in each round?"",""Which statement is TRUE?"",""True of false: The duration of the delay tells me how much more money I could have earned by planning and deciding better.""]","[""1"",""True"",""$0.10"",""As many or as few as I wish"",""My earnings for each round are equal to the <i>sum</i> of the values of all locations I visit (minus the cost of making observations), and I will be paid the earnings from one of the 12 rounds."",""True""]",16826,408133,survey-multi-choice,A1DC5MIXX6SMUJ,3W92K5RLWUHPIQGSB9CSB5O1OZU5VU,14
410,"[False, True, True, True, False, True]","[""How many flights are there per round?"",""True or false: The hidden values will change each time I start a new round."",""How much does it cost to observe each hidden value?"",""How many hidden values am I allowed to observe in each round?"",""Which statement is TRUE?"",""True of false: The duration of the delay tells me how much more money I could have earned by planning and deciding better.""]","[""1"",""True"",""$0.10"",""As many or as few as I wish"",""My earnings for each round are equal to the value of one of the locations I visit (minus the cost of making observations), and I will actually be paid the earnings from one of the 12 rounds."",""True""]",48614,462200,survey-multi-choice,A1DC5MIXX6SMUJ,3W92K5RLWUHPIQGSB9CSB5O1OZU5VU,14
412,"[True, True, True, True, True, True]","[""How many flights are there per round?"",""True or false: The hidden values will change each time I start a new round."",""How much does it cost to observe each hidden value?"",""How many hidden values am I allowed to observe in each round?"",""Which statement is TRUE?"",""True of false: The duration of the delay tells me how much more money I could have earned by planning and deciding better.""]","[""3"",""True"",""$0.10"",""As many or as few as I wish"",""My earnings for each round are equal to the <i>sum</i> of the values of all locations I visit (minus the cost of making observations), and I will be paid the earnings from one of the 12 rounds."",""True""]",24251,525385,survey-multi-choice,A1DC5MIXX6SMUJ,3W92K5RLWUHPIQGSB9CSB5O1OZU5VU,14
430,"[True, True, True, True, False]","[""How many flights are there per round?"",""True or false: The hidden values will change each time I start a new round."",""How much does it cost to observe each hidden value?"",""How many hidden values am I allowed to observe in each round?"",""Which statement is TRUE?""]","[""3"",""True"",""$0.10"",""As many or as few as I wish"",""My earnings for each round are equal to the value of one of the locations I visit (minus the cost of making observations), and I will actually be paid the earnings from one of the 12 rounds.""]",47000,92622,survey-multi-choice,A1EQ2HDHF2WWSY,3NPI0JQDAO5EY8UMQTLR8T5XIEFPTK,15
432,"[True, True, True, True, False]","[""How many flights are there per round?"",""True or false: The hidden values will change each time I start a new round."",""How much does it cost to observe each hidden value?"",""How many hidden values am I allowed to observe in each round?"",""Which statement is TRUE?""]","[""3"",""True"",""$0.10"",""As many or as few as I wish"",""My earnings for each round are equal to the value of one of the locations I visit (minus the cost of making observations), but these earnings aren't real money.""]",21554,174447,survey-multi-choice,A1EQ2HDHF2WWSY,3NPI0JQDAO5EY8UMQTLR8T5XIEFPTK,15
434,"[True, True, True, True, True]","[""How many flights are there per round?"",""True or false: The hidden values will change each time I start a new round."",""How much does it cost to observe each hidden value?"",""How many hidden values am I allowed to observe in each round?"",""Which statement is TRUE?""]","[""3"",""True"",""$0.10"",""As many or as few as I wish"",""My earnings for each round are equal to the <i>sum</i> of the values of all locations I visit (minus the cost of making observations), and I will be paid the earnings from one of the 12 rounds.""]",16042,201390,survey-multi-choice,A1EQ2HDHF2WWSY,3NPI0JQDAO5EY8UMQTLR8T5XIEFPTK,15
451,"[False, True, True, False, True, True]","[""How many flights are there per round?"",""True or false: The hidden values will change each time I start a new round."",""How much does it cost to observe each hidden value?"",""How many hidden values am I allowed to observe in each round?"",""Which statement is TRUE?"",""What does the feedback teach me?""]","[""1"",""True"",""$0.10"",""At most 15"",""My earnings for each round are equal to the <i>sum</i> of the values of all locations I visit (minus the cost of making observations), and I will be paid the earnings from one of the 12 rounds."",""All of the above.""]",91632,258873,survey-multi-choice,A1FYTTGF0QACU9,3OCHAWUVGOKK4Y6QIBHG1F441ZUKXS,16
453,"[False, True, True, True, False, True]","[""How many flights are there per round?"",""True or false: The hidden values will change each time I start a new round."",""How much does it cost to observe each hidden value?"",""How many hidden values am I allowed to observe in each round?"",""Which statement is TRUE?"",""What does the feedback teach me?""]","[""1"",""True"",""$0.10"",""As many or as few as I wish"",""My earnings for each round are equal to the value of one of the locations I visit (minus the cost of making observations), and I will actually be paid the earnings from one of the 12 rounds."",""All of the above.""]",57644,359130,survey-multi-choice,A1FYTTGF0QACU9,3OCHAWUVGOKK4Y6QIBHG1F441ZUKXS,16
455,"[False, True, True, True, True, True]","[""How many flights are there per round?"",""True or false: The hidden values will change each time I start a new round."",""How much does it cost to observe each hidden value?"",""How many hidden values am I allowed to observe in each round?"",""Which statement is TRUE?"",""What does the feedback teach me?""]","[""2"",""True"",""$0.10"",""As many or as few as I wish"",""My earnings for each round are equal to the <i>sum</i> of the values of all locations I visit (minus the cost of making observations), and I will be paid the earnings from one of the 12 rounds."",""All of the above.""]",52798,471604,survey-multi-choice,A1FYTTGF0QACU9,3OCHAWUVGOKK4Y6QIBHG1F441ZUKXS,16
457,"[False, True, True, True, True, False]","[""How many flights are there per round?"",""True or false: The hidden values will change each time I start a new round."",""How much does it cost to observe each hidden value?"",""How many hidden values am I allowed to observe in each round?"",""Which statement is TRUE?"",""What does the feedback teach me?""]","[""2"",""True"",""$0.10"",""As many or as few as I wish"",""My earnings for each round are equal to the <i>sum</i> of the values of all locations I visit (minus the cost of making observations), and I will be paid the earnings from one of the 12 rounds."",""Whether I chose the move that was best according to the information I had.""]",91596,657060,survey-multi-choice,A1FYTTGF0QACU9,3OCHAWUVGOKK4Y6QIBHG1F441ZUKXS,16
459,"[False, True, True, True, True, False]","[""How many flights are there per round?"",""True or false: The hidden values will change each time I start a new round."",""How much does it cost to observe each hidden value?"",""How many hidden values am I allowed to observe in each round?"",""Which statement is TRUE?"",""What does the feedback teach me?""]","[""1"",""True"",""$0.10"",""As many or as few as I wish"",""My earnings for each round are equal to the <i>sum</i> of the values of all locations I visit (minus the cost of making observations), and I will be paid the earnings from one of the 12 rounds."",""Whether I observed the rewards of relevant locations.""]",38041,805793,survey-multi-choice,A1FYTTGF0QACU9,3OCHAWUVGOKK4Y6QIBHG1F441ZUKXS,16
461,"[False, True, True, True, True, False]","[""How many flights are there per round?"",""True or false: The hidden values will change each time I start a new round."",""How much does it cost to observe each hidden value?"",""How many hidden values am I allowed to observe in each round?"",""Which statement is TRUE?"",""What does the feedback teach me?""]","[""1"",""True"",""$0.10"",""As many or as few as I wish"",""My earnings for each round are equal to the <i>sum</i> of the values of all locations I visit (minus the cost of making observations), and I will be paid the earnings from one of the 12 rounds."",""Whether I chose the move that was best according to the information I had.""]",25702,844837,survey-multi-choice,A1FYTTGF0QACU9,3OCHAWUVGOKK4Y6QIBHG1F441ZUKXS,16
463,"[False, True, True, True, True, True]","[""How many flights are there per round?"",""True or false: The hidden values will change each time I start a new round."",""How much does it cost to observe each hidden value?"",""How many hidden values am I allowed to observe in each round?"",""Which statement is TRUE?"",""What does the feedback teach me?""]","[""1"",""True"",""$0.10"",""As many or as few as I wish"",""My earnings for each round are equal to the <i>sum</i> of the values of all locations I visit (minus the cost of making observations), and I will be paid the earnings from one of the 12 rounds."",""All of the above.""]",36789,912419,survey-multi-choice,A1FYTTGF0QACU9,3OCHAWUVGOKK4Y6QIBHG1F441ZUKXS,16
465,"[False, True, True, True, False, True]","[""How many flights are there per round?"",""True or false: The hidden values will change each time I start a new round."",""How much does it cost to observe each hidden value?"",""How many hidden values am I allowed to observe in each round?"",""Which statement is TRUE?"",""What does the feedback teach me?""]","[""1"",""True"",""$0.10"",""As many or as few as I wish"",""My earnings for each round are equal to the value of one of the locations I visit (minus the cost of making observations), and I will actually be paid the earnings from one of the 12 rounds."",""All of the above.""]",32293,964658,survey-multi-choice,A1FYTTGF0QACU9,3OCHAWUVGOKK4Y6QIBHG1F441ZUKXS,16
467,"[False, True, True, True, True, False]","[""How many flights are there per round?"",""True or false: The hidden values will change each time I start a new round."",""How much does it cost to observe each hidden value?"",""How many hidden values am I allowed to observe in each round?"",""Which statement is TRUE?"",""What does the feedback teach me?""]","[""1"",""True"",""$0.10"",""As many or as few as I wish"",""My earnings for each round are equal to the <i>sum</i> of the values of all locations I visit (minus the cost of making observations), and I will be paid the earnings from one of the 12 rounds."",""Whether I chose the move that was best according to the information I had.""]",27932,1066944,survey-multi-choice,A1FYTTGF0QACU9,3OCHAWUVGOKK4Y6QIBHG1F441ZUKXS,16
469,"[False, True, True, True, True, True]","[""How many flights are there per round?"",""True or false: The hidden values will change each time I start a new round."",""How much does it cost to observe each hidden value?"",""How many hidden values am I allowed to observe in each round?"",""Which statement is TRUE?"",""What does the feedback teach me?""]","[""1"",""True"",""$0.10"",""As many or as few as I wish"",""My earnings for each round are equal to the <i>sum</i> of the values of all locations I visit (minus the cost of making observations), and I will be paid the earnings from one of the 12 rounds."",""All of the above.""]",27780,1105271,survey-multi-choice,A1FYTTGF0QACU9,3OCHAWUVGOKK4Y6QIBHG1F441ZUKXS,16
471,"[False, True, True, True, True, False]","[""How many flights are there per round?"",""True or false: The hidden values will change each time I start a new round."",""How much does it cost to observe each hidden value?"",""How many hidden values am I allowed to observe in each round?"",""Which statement is TRUE?"",""What does the feedback teach me?""]","[""1"",""True"",""$0.10"",""As many or as few as I wish"",""My earnings for each round are equal to the <i>sum</i> of the values of all locations I visit (minus the cost of making observations), and I will be paid the earnings from one of the 12 rounds."",""The duration of the delay tells me how much more money I could have earned by planning and deciding better.""]",16707,1170744,survey-multi-choice,A1FYTTGF0QACU9,3OCHAWUVGOKK4Y6QIBHG1F441ZUKXS,16
473,"[False, True, True, True, True, False]","[""How many flights are there per round?"",""True or false: The hidden values will change each time I start a new round."",""How much does it cost to observe each hidden value?"",""How many hidden values am I allowed to observe in each round?"",""Which statement is TRUE?"",""What does the feedback teach me?""]","[""1"",""True"",""$0.10"",""As many or as few as I wish"",""My earnings for each round are equal to the <i>sum</i> of the values of all locations I visit (minus the cost of making observations), and I will be paid the earnings from one of the 12 rounds."",""Whether I observed the rewards of relevant locations.""]",31670,1212377,survey-multi-choice,A1FYTTGF0QACU9,3OCHAWUVGOKK4Y6QIBHG1F441ZUKXS,16
475,"[False, True, True, True, True, False]","[""How many flights are there per round?"",""True or false: The hidden values will change each time I start a new round."",""How much does it cost to observe each hidden value?"",""How many hidden values am I allowed to observe in each round?"",""Which statement is TRUE?"",""What does the feedback teach me?""]","[""1"",""True"",""$0.10"",""As many or as few as I wish"",""My earnings for each round are equal to the <i>sum</i> of the values of all locations I visit (minus the cost of making observations), and I will be paid the earnings from one of the 12 rounds."",""Whether I chose the move that was best according to the information I had.""]",36793,1368365,survey-multi-choice,A1FYTTGF0QACU9,3OCHAWUVGOKK4Y6QIBHG1F441ZUKXS,16
477,"[False, True, True, True, True, False]","[""How many flights are there per round?"",""True or false: The hidden values will change each time I start a new round."",""How much does it cost to observe each hidden value?"",""How many hidden values am I allowed to observe in each round?"",""Which statement is TRUE?"",""What does the feedback teach me?""]","[""2"",""True"",""$0.10"",""As many or as few as I wish"",""My earnings for each round are equal to the <i>sum</i> of the values of all locations I visit (minus the cost of making observations), and I will be paid the earnings from one of the 12 rounds."",""Whether I observed the rewards of relevant locations.""]",55314,1431564,survey-multi-choice,A1FYTTGF0QACU9,3OCHAWUVGOKK4Y6QIBHG1F441ZUKXS,16
479,"[False, True, True, True, True, False]","[""How many flights are there per round?"",""True or false: The hidden values will change each time I start a new round."",""How much does it cost to observe each hidden value?"",""How many hidden values am I allowed to observe in each round?"",""Which statement is TRUE?"",""What does the feedback teach me?""]","[""1"",""True"",""$0.10"",""As many or as few as I wish"",""My earnings for each round are equal to the <i>sum</i> of the values of all locations I visit (minus the cost of making observations), and I will be paid the earnings from one of the 12 rounds."",""Whether I observed the rewards of relevant locations.""]",39894,1481527,survey-multi-choice,A1FYTTGF0QACU9,3OCHAWUVGOKK4Y6QIBHG1F441ZUKXS,16
481,"[False, True, True, True, False, True]","[""How many flights are there per round?"",""True or false: The hidden values will change each time I start a new round."",""How much does it cost to observe each hidden value?"",""How many hidden values am I allowed to observe in each round?"",""Which statement is TRUE?"",""What does the feedback teach me?""]","[""1"",""True"",""$0.10"",""As many or as few as I wish"",""My earnings for each round are equal to the <i>sum</i> of the values of all locations I visit (minus the cost of making observations), but these earnings aren't real money."",""All of the above.""]",22809,1512081,survey-multi-choice,A1FYTTGF0QACU9,3OCHAWUVGOKK4Y6QIBHG1F441ZUKXS,16
483,"[False, True, True, True, False, True]","[""How many flights are there per round?"",""True or false: The hidden values will change each time I start a new round."",""How much does it cost to observe each hidden value?"",""How many hidden values am I allowed to observe in each round?"",""Which statement is TRUE?"",""What does the feedback teach me?""]","[""1"",""True"",""$0.10"",""As many or as few as I wish"",""My earnings for each round are equal to the value of one of the locations I visit (minus the cost of making observations), and I will actually be paid the earnings from one of the 12 rounds."",""All of the above.""]",18878,1538668,survey-multi-choice,A1FYTTGF0QACU9,3OCHAWUVGOKK4Y6QIBHG1F441ZUKXS,16
485,"[False, True, True, True, True, True]","[""How many flights are there per round?"",""True or false: The hidden values will change each time I start a new round."",""How much does it cost to observe each hidden value?"",""How many hidden values am I allowed to observe in each round?"",""Which statement is TRUE?"",""What does the feedback teach me?""]","[""1"",""True"",""$0.10"",""As many or as few as I wish"",""My earnings for each round are equal to the <i>sum</i> of the values of all locations I visit (minus the cost of making observations), and I will be paid the earnings from one of the 12 rounds."",""All of the above.""]",37918,1584937,survey-multi-choice,A1FYTTGF0QACU9,3OCHAWUVGOKK4Y6QIBHG1F441ZUKXS,16
487,"[False, True, True, True, True, True]","[""How many flights are there per round?"",""True or false: The hidden values will change each time I start a new round."",""How much does it cost to observe each hidden value?"",""How many hidden values am I allowed to observe in each round?"",""Which statement is TRUE?"",""What does the feedback teach me?""]","[""1"",""True"",""$0.10"",""As many or as few as I wish"",""My earnings for each round are equal to the <i>sum</i> of the values of all locations I visit (minus the cost of making observations), and I will be paid the earnings from one of the 12 rounds."",""All of the above.""]",16060,1610483,survey-multi-choice,A1FYTTGF0QACU9,3OCHAWUVGOKK4Y6QIBHG1F441ZUKXS,16
489,"[False, True, True, True, True, True]","[""How many flights are there per round?"",""True or false: The hidden values will change each time I start a new round."",""How much does it cost to observe each hidden value?"",""How many hidden values am I allowed to observe in each round?"",""Which statement is TRUE?"",""What does the feedback teach me?""]","[""2"",""True"",""$0.10"",""As many or as few as I wish"",""My earnings for each round are equal to the <i>sum</i> of the values of all locations I visit (minus the cost of making observations), and I will be paid the earnings from one of the 12 rounds."",""All of the above.""]",15593,1664055,survey-multi-choice,A1FYTTGF0QACU9,3OCHAWUVGOKK4Y6QIBHG1F441ZUKXS,16
491,"[False, True, True, True, True, True]","[""How many flights are there per round?"",""True or false: The hidden values will change each time I start a new round."",""How much does it cost to observe each hidden value?"",""How many hidden values am I allowed to observe in each round?"",""Which statement is TRUE?"",""What does the feedback teach me?""]","[""4"",""True"",""$0.10"",""As many or as few as I wish"",""My earnings for each round are equal to the <i>sum</i> of the values of all locations I visit (minus the cost of making observations), and I will be paid the earnings from one of the 12 rounds."",""All of the above.""]",29753,1716466,survey-multi-choice,A1FYTTGF0QACU9,3OCHAWUVGOKK4Y6QIBHG1F441ZUKXS,16
493,"[False, True, True, True, True, True]","[""How many flights are there per round?"",""True or false: The hidden values will change each time I start a new round."",""How much does it cost to observe each hidden value?"",""How many hidden values am I allowed to observe in each round?"",""Which statement is TRUE?"",""What does the feedback teach me?""]","[""2"",""True"",""$0.10"",""As many or as few as I wish"",""My earnings for each round are equal to the <i>sum</i> of the values of all locations I visit (minus the cost of making observations), and I will be paid the earnings from one of the 12 rounds."",""All of the above.""]",50235,1794357,survey-multi-choice,A1FYTTGF0QACU9,3OCHAWUVGOKK4Y6QIBHG1F441ZUKXS,16
495,"[False, True, True, True, True, True]","[""How many flights are there per round?"",""True or false: The hidden values will change each time I start a new round."",""How much does it cost to observe each hidden value?"",""How many hidden values am I allowed to observe in each round?"",""Which statement is TRUE?"",""What does the feedback teach me?""]","[""1"",""True"",""$0.10"",""As many or as few as I wish"",""My earnings for each round are equal to the <i>sum</i> of the values of all locations I visit (minus the cost of making observations), and I will be paid the earnings from one of the 12 rounds."",""All of the above.""]",28747,1848839,survey-multi-choice,A1FYTTGF0QACU9,3OCHAWUVGOKK4Y6QIBHG1F441ZUKXS,16
497,"[False, True, True, True, True, True]","[""How many flights are there per round?"",""True or false: The hidden values will change each time I start a new round."",""How much does it cost to observe each hidden value?"",""How many hidden values am I allowed to observe in each round?"",""Which statement is TRUE?"",""What does the feedback teach me?""]","[""4"",""True"",""$0.10"",""As many or as few as I wish"",""My earnings for each round are equal to the <i>sum</i> of the values of all locations I visit (minus the cost of making observations), and I will be paid the earnings from one of the 12 rounds."",""All of the above.""]",20293,1878634,survey-multi-choice,A1FYTTGF0QACU9,3OCHAWUVGOKK4Y6QIBHG1F441ZUKXS,16
499,"[True, True, True, True, True, True]","[""How many flights are there per round?"",""True or false: The hidden values will change each time I start a new round."",""How much does it cost to observe each hidden value?"",""How many hidden values am I allowed to observe in each round?"",""Which statement is TRUE?"",""What does the feedback teach me?""]","[""3"",""True"",""$0.10"",""As many or as few as I wish"",""My earnings for each round are equal to the <i>sum</i> of the values of all locations I visit (minus the cost of making observations), and I will be paid the earnings from one of the 12 rounds."",""All of the above.""]",17533,1904700,survey-multi-choice,A1FYTTGF0QACU9,3OCHAWUVGOKK4Y6QIBHG1F441ZUKXS,16
516,"[False, True, False, True, True, True]","[""How many flights are there per round?"",""True or false: The hidden values will change each time I start a new round."",""How much does it cost to observe each hidden value?"",""How many hidden values am I allowed to observe in each round?"",""Which statement is TRUE?"",""What does the feedback teach me?""]","[""1"",""True"",""$0.00"",""As many or as few as I wish"",""My earnings for each round are equal to the <i>sum</i> of the values of all locations I visit (minus the cost of making observations), and I will be paid the earnings from one of the 12 rounds."",""All of the above.""]",35138,104865,survey-multi-choice,A1GN9TMCN82WPL,3R2UR8A0IAG3UPR5G3998WLDL45OXH,17
518,"[True, True, True, True, True, True]","[""How many flights are there per round?"",""True or false: The hidden values will change each time I start a new round."",""How much does it cost to observe each hidden value?"",""How many hidden values am I allowed to observe in each round?"",""Which statement is TRUE?"",""What does the feedback teach me?""]","[""3"",""True"",""$0.10"",""As many or as few as I wish"",""My earnings for each round are equal to the <i>sum</i> of the values of all locations I visit (minus the cost of making observations), and I will be paid the earnings from one of the 12 rounds."",""All of the above.""]",20334,174357,survey-multi-choice,A1GN9TMCN82WPL,3R2UR8A0IAG3UPR5G3998WLDL45OXH,17
536,"[False, True, True, False, False, True]","[""How many flights are there per round?"",""True or false: The hidden values will change each time I start a new round."",""How much does it cost to observe each hidden value?"",""How many hidden values am I allowed to observe in each round?"",""Which statement is TRUE?"",""True of false: The duration of the delay tells me how much more money I could have earned by planning and deciding better.""]","[""1"",""True"",""$0.10"",""At most 10"",""My earnings for each round are equal to the value of one of the locations I visit (minus the cost of making observations), and I will actually be paid the earnings from one of the 12 rounds."",""True""]",70471,204764,survey-multi-choice,A1IZ4NX41GKU4X,3X3OR7WPZZ0593N0V3HP0G0QZRTL8T,18
538,"[False, True, True, True, True, False]","[""How many flights are there per round?"",""True or false: The hidden values will change each time I start a new round."",""How much does it cost to observe each hidden value?"",""How many hidden values am I allowed to observe in each round?"",""Which statement is TRUE?"",""True of false: The duration of the delay tells me how much more money I could have earned by planning and deciding better.""]","[""1"",""True"",""$0.10"",""As many or as few as I wish"",""My earnings for each round are equal to the <i>sum</i> of the values of all locations I visit (minus the cost of making observations), and I will be paid the earnings from one of the 12 rounds."",""False""]",39852,396997,survey-multi-choice,A1IZ4NX41GKU4X,3X3OR7WPZZ0593N0V3HP0G0QZRTL8T,18
540,"[False, True, True, True, False, True]","[""How many flights are there per round?"",""True or false: The hidden values will change each time I start a new round."",""How much does it cost to observe each hidden value?"",""How many hidden values am I allowed to observe in each round?"",""Which statement is TRUE?"",""True of false: The duration of the delay tells me how much more money I could have earned by planning and deciding better.""]","[""1"",""True"",""$0.10"",""As many or as few as I wish"",""My earnings for each round are equal to the value of one of the locations I visit (minus the cost of making observations), and I will actually be paid the earnings from one of the 12 rounds."",""True""]",90047,732582,survey-multi-choice,A1IZ4NX41GKU4X,3X3OR7WPZZ0593N0V3HP0G0QZRTL8T,18
542,"[True, True, True, True, True, True]","[""How many flights are there per round?"",""True or false: The hidden values will change each time I start a new round."",""How much does it cost to observe each hidden value?"",""How many hidden values am I allowed to observe in each round?"",""Which statement is TRUE?"",""True of false: The duration of the delay tells me how much more money I could have earned by planning and deciding better.""]","[""3"",""True"",""$0.10"",""As many or as few as I wish"",""My earnings for each round are equal to the <i>sum</i> of the values of all locations I visit (minus the cost of making observations), and I will be paid the earnings from one of the 12 rounds."",""True""]",43343,889266,survey-multi-choice,A1IZ4NX41GKU4X,3X3OR7WPZZ0593N0V3HP0G0QZRTL8T,18
560,"[False, True, True, True, True]","[""How many flights are there per round?"",""True or false: The hidden values will change each time I start a new round."",""How much does it cost to observe each hidden value?"",""How many hidden values am I allowed to observe in each round?"",""Which statement is TRUE?""]","[""1"",""True"",""$0.10"",""As many or as few as I wish"",""My earnings for each round are equal to the <i>sum</i> of the values of all locations I visit (minus the cost of making observations), and I will be paid the earnings from one of the 12 rounds.""]",62663,208032,survey-multi-choice,A1J0IHJ61FFDUF,3ZWFC4W1UU7PRGS081KRWKQBSMSFRP,19
