A110JBKYAC0WAW:37C0GNLMHF3Z7DGKP7M3XPWUJYWD6Z,0,1491512618218,"{""rt"": 198535, ""trial_type"": ""instructions"", ""view_history"": ""[{\""page_index\"":0,\""viewing_time\"":106864},{\""page_index\"":1,\""viewing_time\"":47375},{\""page_index\"":2,\""viewing_time\"":16576},{\""page_index\"":3,\""viewing_time\"":27720}]"", ""internal_node_id"": ""0.0-0.0-0.0"", ""time_elapsed"": 198537, ""trial_index"": 0}"
A110JBKYAC0WAW:37C0GNLMHF3Z7DGKP7M3XPWUJYWD6Z,1,1491512677257,"{""rt"": 54583, ""trial_type"": ""survey-multi-choice"", ""responses"": ""[\""1\"",\""True\"",\""$0.10\"",\""As many or as few as I wish\"",\""My earnings for each round are equal to the value of one of the locations I visit (minus the cost of making observations), but these earnings aren't real money.\"",\""False\""]"", ""internal_node_id"": ""0.0-0.0-1.0"", ""time_elapsed"": 257576, ""questions"": ""[\""How many flights are there per round?\"",\""True or false: The hidden values will change each time I start a new round.\"",\""How much does it cost to observe each hidden value?\"",\""How many hidden values am I allowed to observe in each round?\"",\""Which statement is TRUE?\"",\""True of false: The duration of the delay tells me how much more money I could have earned by planning and deciding better.\""]"", ""correct"": [false, true, true, true, false, false], ""trial_index"": 1}"
A110JBKYAC0WAW:37C0GNLMHF3Z7DGKP7M3XPWUJYWD6Z,2,1491512762897,"{""rt"": 84637, ""trial_type"": ""instructions"", ""view_history"": ""[{\""page_index\"":0,\""viewing_time\"":19006},{\""page_index\"":1,\""viewing_time\"":28752},{\""page_index\"":2,\""viewing_time\"":24024},{\""page_index\"":3,\""viewing_time\"":12855}]"", ""internal_node_id"": ""0.0-0.1-0.1"", ""time_elapsed"": 343215, ""trial_index"": 2}"
A110JBKYAC0WAW:37C0GNLMHF3Z7DGKP7M3XPWUJYWD6Z,3,1491512808337,"{""rt"": 42795, ""trial_type"": ""survey-multi-choice"", ""responses"": ""[\""3\"",\""True\"",\""$0.10\"",\""As many or as few as I wish\"",\""My earnings for each round are equal to the <i>sum</i> of the values of all locations I visit (minus the cost of making observations), and I will be paid the earnings from one of the 8 rounds.\"",\""False\""]"", ""internal_node_id"": ""0.0-0.1-1.1"", ""time_elapsed"": 388656, ""questions"": ""[\""How many flights are there per round?\"",\""True or false: The hidden values will change each time I start a new round.\"",\""How much does it cost to observe each hidden value?\"",\""How many hidden values am I allowed to observe in each round?\"",\""Which statement is TRUE?\"",\""True of false: The duration of the delay tells me how much more money I could have earned by planning and deciding better.\""]"", ""correct"": [true, true, true, true, true, false], ""trial_index"": 3}"
A110JBKYAC0WAW:37C0GNLMHF3Z7DGKP7M3XPWUJYWD6Z,4,1491512828793,"{""rt"": 19454, ""trial_type"": ""instructions"", ""view_history"": ""[{\""page_index\"":0,\""viewing_time\"":2477},{\""page_index\"":1,\""viewing_time\"":1240},{\""page_index\"":2,\""viewing_time\"":12096},{\""page_index\"":3,\""viewing_time\"":3640}]"", ""internal_node_id"": ""0.0-0.2-0.2"", ""time_elapsed"": 409112, ""trial_index"": 4}"
A110JBKYAC0WAW:37C0GNLMHF3Z7DGKP7M3XPWUJYWD6Z,5,1491512858481,"{""rt"": 26820, ""trial_type"": ""survey-multi-choice"", ""responses"": ""[\""1\"",\""True\"",\""$0.10\"",\""As many or as few as I wish\"",\""My earnings for each round are equal to the <i>sum</i> of the values of all locations I visit (minus the cost of making observations), and I will be paid the earnings from one of the 8 rounds.\"",\""True\""]"", ""internal_node_id"": ""0.0-0.2-1.2"", ""time_elapsed"": 438800, ""questions"": ""[\""How many flights are there per round?\"",\""True or false: The hidden values will change each time I start a new round.\"",\""How much does it cost to observe each hidden value?\"",\""How many hidden values am I allowed to observe in each round?\"",\""Which statement is TRUE?\"",\""True of false: The duration of the delay tells me how much more money I could have earned by planning and deciding better.\""]"", ""correct"": [false, true, true, true, true, true], ""trial_index"": 5}"
A110JBKYAC0WAW:37C0GNLMHF3Z7DGKP7M3XPWUJYWD6Z,6,1491512887376,"{""rt"": 27891, ""trial_type"": ""instructions"", ""view_history"": ""[{\""page_index\"":0,\""viewing_time\"":22955},{\""page_index\"":1,\""viewing_time\"":1888},{\""page_index\"":2,\""viewing_time\"":1288},{\""page_index\"":3,\""viewing_time\"":1760}]"", ""internal_node_id"": ""0.0-0.3-0.3"", ""time_elapsed"": 467695, ""trial_index"": 6}"
A110JBKYAC0WAW:37C0GNLMHF3Z7DGKP7M3XPWUJYWD6Z,7,1491512908184,"{""rt"": 18239, ""trial_type"": ""survey-multi-choice"", ""responses"": ""[\""3\"",\""True\"",\""$0.10\"",\""As many or as few as I wish\"",\""My earnings for each round are equal to the <i>sum</i> of the values of all locations I visit (minus the cost of making observations), and I will be paid the earnings from one of the 8 rounds.\"",\""False\""]"", ""internal_node_id"": ""0.0-0.3-1.3"", ""time_elapsed"": 488503, ""questions"": ""[\""How many flights are there per round?\"",\""True or false: The hidden values will change each time I start a new round.\"",\""How much does it cost to observe each hidden value?\"",\""How many hidden values am I allowed to observe in each round?\"",\""Which statement is TRUE?\"",\""True of false: The duration of the delay tells me how much more money I could have earned by planning and deciding better.\""]"", ""correct"": [true, true, true, true, true, false], ""trial_index"": 7}"
A110JBKYAC0WAW:37C0GNLMHF3Z7DGKP7M3XPWUJYWD6Z,8,1491512913832,"{""rt"": 4646, ""trial_type"": ""instructions"", ""view_history"": ""[{\""page_index\"":0,\""viewing_time\"":1734},{\""page_index\"":1,\""viewing_time\"":984},{\""page_index\"":2,\""viewing_time\"":928},{\""page_index\"":3,\""viewing_time\"":1000}]"", ""internal_node_id"": ""0.0-0.4-0.4"", ""time_elapsed"": 494151, ""trial_index"": 8}"
A110JBKYAC0WAW:37C0GNLMHF3Z7DGKP7M3XPWUJYWD6Z,9,1491512939640,"{""rt"": 23311, ""trial_type"": ""survey-multi-choice"", ""responses"": ""[\""1\"",\""True\"",\""$0.10\"",\""As many or as few as I wish\"",\""My earnings for each round are equal to the <i>sum</i> of the values of all locations I visit (minus the cost of making observations), and I will be paid the earnings from one of the 8 rounds.\"",\""True\""]"", ""internal_node_id"": ""0.0-0.4-1.4"", ""time_elapsed"": 519959, ""questions"": ""[\""How many flights are there per round?\"",\""True or false: The hidden values will change each time I start a new round.\"",\""How much does it cost to observe each hidden value?\"",\""How many hidden values am I allowed to observe in each round?\"",\""Which statement is TRUE?\"",\""True of false: The duration of the delay tells me how much more money I could have earned by planning and deciding better.\""]"", ""correct"": [false, true, true, true, true, true], ""trial_index"": 9}"
A110JBKYAC0WAW:37C0GNLMHF3Z7DGKP7M3XPWUJYWD6Z,10,1491512948848,"{""rt"": 8206, ""trial_type"": ""instructions"", ""view_history"": ""[{\""page_index\"":0,\""viewing_time\"":5462},{\""page_index\"":1,\""viewing_time\"":832},{\""page_index\"":2,\""viewing_time\"":848},{\""page_index\"":3,\""viewing_time\"":1064}]"", ""internal_node_id"": ""0.0-0.5-0.5"", ""time_elapsed"": 529167, ""trial_index"": 10}"
A110JBKYAC0WAW:37C0GNLMHF3Z7DGKP7M3XPWUJYWD6Z,11,1491512965930,"{""rt"": 16060, ""trial_type"": ""survey-multi-choice"", ""responses"": ""[\""3\"",\""True\"",\""$0.10\"",\""As many or as few as I wish\"",\""My earnings for each round are equal to the <i>sum</i> of the values of all locations I visit (minus the cost of making observations), and I will be paid the earnings from one of the 8 rounds.\"",\""True\""]"", ""internal_node_id"": ""0.0-0.5-1.5"", ""time_elapsed"": 546248, ""questions"": ""[\""How many flights are there per round?\"",\""True or false: The hidden values will change each time I start a new round.\"",\""How much does it cost to observe each hidden value?\"",\""How many hidden values am I allowed to observe in each round?\"",\""Which statement is TRUE?\"",\""True of false: The duration of the delay tells me how much more money I could have earned by planning and deciding better.\""]"", ""correct"": [true, true, true, true, true, true], ""trial_index"": 11}"
A110JBKYAC0WAW:37C0GNLMHF3Z7DGKP7M3XPWUJYWD6Z,12,1491513020423,"{""rt"": [23781, 2142, 899], ""trial_type"": ""graph"", ""infoCost"": 0.1, ""minTime"": 45, ""delays"": [2, 0, 2], ""actionTimes"": [23782, 29098, 31124], ""time_elapsed"": 600742, ""actions"": [""left"", ""left"", ""up""], ""trialIndex"": 1, ""score"": 39.1, ""trial_index"": 12, ""internal_node_id"": ""0.0-1.0-0.0"", ""clickTimes"": [7124, 9167, 10832, 11903, 13688, 14593, 15832, 17137, 18201], ""path"": [1, 4, 8, 14], ""trialID"": 0, ""clicks"": [""2"", ""3"", ""4"", ""5"", ""9"", ""17"", ""16"", ""8"", ""14""], ""condition"": 2}"
A110JBKYAC0WAW:37C0GNLMHF3Z7DGKP7M3XPWUJYWD6Z,13,1491513105443,"{""rt"": [24109, 3, 387], ""trial_type"": ""graph"", ""infoCost"": 0.1, ""minTime"": 45, ""delays"": [-1, 0, 0], ""actionTimes"": [24109, 25162, 26550], ""time_elapsed"": 685762, ""actions"": [""left"", ""left"", ""up""], ""trialIndex"": 2, ""score"": 32.7, ""trial_index"": 13, ""internal_node_id"": ""0.0-1.0-1.0"", ""clickTimes"": [1877, 3181, 4396, 5605, 7837, 9318, 11661, 13317, 14701, 16197, 18814, 19830, 21038], ""path"": [1, 4, 8, 14], ""trialID"": 5, ""clicks"": [""4"", ""3"", ""2"", ""5"", ""7"", ""12"", ""8"", ""14"", ""15"", ""9"", ""6"", ""10"", ""11""], ""condition"": 2}"
A110JBKYAC0WAW:37C0GNLMHF3Z7DGKP7M3XPWUJYWD6Z,14,1491513158006,"{""rt"": [22342, 1, 226], ""trial_type"": ""graph"", ""infoCost"": 0.1, ""minTime"": 45, ""delays"": [-1, 0, 0], ""actionTimes"": [22342, 23236, 24482], ""time_elapsed"": 738325, ""actions"": [""down"", ""down"", ""right""], ""trialIndex"": 3, ""score"": 40.9, ""trial_index"": 14, ""internal_node_id"": ""0.0-1.0-2.0"", ""clickTimes"": [5520, 6679, 7687, 9103, 11151, 12191, 13263, 14760, 16191, 17119, 18519], ""path"": [1, 5, 9, 17], ""trialID"": 4, ""clicks"": [""2"", ""5"", ""4"", ""3"", ""8"", ""14"", ""15"", ""9"", ""16"", ""17"", ""7""], ""condition"": 2}"
A110JBKYAC0WAW:37C0GNLMHF3Z7DGKP7M3XPWUJYWD6Z,15,1491513206647,"{""rt"": [16147, 2, 177], ""trial_type"": ""graph"", ""infoCost"": 0.1, ""minTime"": 45, ""delays"": [-1, 0, 0], ""actionTimes"": [16147, 17023, 18189], ""time_elapsed"": 786965, ""actions"": [""right"", ""right"", ""up""], ""trialIndex"": 4, ""score"": 32.9, ""trial_index"": 15, ""internal_node_id"": ""0.0-1.0-3.0"", ""clickTimes"": [1047, 2714, 3698, 4818, 6706, 8058, 9442, 10754, 11738, 12977, 14395], ""path"": [1, 2, 6, 10], ""trialID"": 2, ""clicks"": [""2"", ""3"", ""4"", ""5"", ""9"", ""6"", ""8"", ""14"", ""15"", ""10"", ""11""], ""condition"": 2}"
A110JBKYAC0WAW:37C0GNLMHF3Z7DGKP7M3XPWUJYWD6Z,16,1491513254805,"{""rt"": [19770, 106, 182], ""trial_type"": ""graph"", ""infoCost"": 0.1, ""minTime"": 45, ""delays"": [-1, 0, 0], ""actionTimes"": [19770, 20837, 21995], ""time_elapsed"": 835123, ""actions"": [""right"", ""right"", ""up""], ""trialIndex"": 5, ""score"": 32.7, ""trial_index"": 16, ""internal_node_id"": ""0.0-1.0-4.0"", ""clickTimes"": [1217, 2921, 3898, 5146, 6770, 7473, 8586, 10346, 11266, 12106, 13841, 16802, 17722], ""path"": [1, 2, 6, 10], ""trialID"": 3, ""clicks"": [""3"", ""2"", ""5"", ""4"", ""9"", ""17"", ""16"", ""6"", ""11"", ""10"", ""7"", ""8"", ""14""], ""condition"": 2}"
A110JBKYAC0WAW:37C0GNLMHF3Z7DGKP7M3XPWUJYWD6Z,17,1491513304317,"{""rt"": [17756, 20, 532], ""trial_type"": ""graph"", ""infoCost"": 0.1, ""minTime"": 45, ""delays"": [-1, 0, 0], ""actionTimes"": [17756, 18543, 19998], ""time_elapsed"": 884636, ""actions"": [""down"", ""down"", ""left""], ""trialIndex"": 6, ""score"": 44.7, ""trial_index"": 17, ""internal_node_id"": ""0.0-1.0-5.0"", ""clickTimes"": [920, 1850, 2850, 3834, 5266, 6138, 7050, 8298, 10554, 12681, 14136, 14922, 15793], ""path"": [1, 5, 9, 16], ""trialID"": 1, ""clicks"": [""2"", ""3"", ""4"", ""5"", ""7"", ""13"", ""12"", ""9"", ""16"", ""17"", ""8"", ""14"", ""15""], ""condition"": 2}"
A110JBKYAC0WAW:37C0GNLMHF3Z7DGKP7M3XPWUJYWD6Z,18,1491513358802,"{""rt"": [21105, 1308, 2795], ""trial_type"": ""graph"", ""infoCost"": 0.1, ""minTime"": 45, ""delays"": [6, 0, 0], ""actionTimes"": [21105, 29107, 32872], ""time_elapsed"": 939121, ""actions"": [""right"", ""right"", ""up""], ""trialIndex"": 7, ""score"": 20.7, ""trial_index"": 18, ""internal_node_id"": ""0.0-1.0-6.0"", ""clickTimes"": [1431, 2735, 3686, 4783, 6590, 8623, 9581, 11351, 12414, 13374, 14888, 15862, 16902], ""path"": [1, 2, 6, 10], ""trialID"": 7, ""clicks"": [""3"", ""2"", ""5"", ""4"", ""6"", ""10"", ""11"", ""7"", ""13"", ""12"", ""8"", ""14"", ""15""], ""condition"": 2}"
A110JBKYAC0WAW:37C0GNLMHF3Z7DGKP7M3XPWUJYWD6Z,19,1491513406456,"{""rt"": [24178, 2, 40], ""trial_type"": ""graph"", ""infoCost"": 0.1, ""minTime"": 45, ""delays"": [0, 0, 0], ""actionTimes"": [24178, 24980, 25934], ""time_elapsed"": 986775, ""actions"": [""up"", ""up"", ""left""], ""trialIndex"": 8, ""score"": 35.5, ""trial_index"": 19, ""internal_node_id"": ""0.0-1.0-7.0"", ""clickTimes"": [3399, 4239, 4975, 6072, 7352, 8144, 8992, 10687, 13431, 14392, 15487, 16894, 18062, 19432, 20094], ""path"": [1, 3, 7, 12], ""trialID"": 6, ""clicks"": [""3"", ""4"", ""5"", ""2"", ""7"", ""12"", ""13"", ""8"", ""14"", ""15"", ""9"", ""16"", ""17"", ""6"", ""10""], ""condition"": 2}"
A110JBKYAC0WAW:37C0GNLMHF3Z7DGKP7M3XPWUJYWD6Z,20,1491513413056,"{""rt"": 5571, ""trial_type"": ""button-response"", ""button_pressed"": 0, ""stimulus"": ""<h1 id=\""thiscompletesthehit\"">This completes the HIT</h1>\n\n<p>One or your trials has been randomly selected and we will pay you 5% of your profit on that trial as a bonus. You will be awarded a bonus of $1.64</p>"", ""internal_node_id"": ""0.0-2.0"", ""time_elapsed"": 993375, ""trial_index"": 20}"
A12R2U6TBB3OOG:3KWTYT08703MML4YX5AMOWQZWCN5LR,0,1491511452259,"{""rt"": 133570, ""trial_type"": ""instructions"", ""view_history"": ""[{\""page_index\"":0,\""viewing_time\"":87847},{\""page_index\"":1,\""viewing_time\"":18491},{\""page_index\"":2,\""viewing_time\"":16181},{\""page_index\"":3,\""viewing_time\"":11051}]"", ""internal_node_id"": ""0.0-0.0-0.0"", ""time_elapsed"": 133572, ""trial_index"": 0}"
A12R2U6TBB3OOG:3KWTYT08703MML4YX5AMOWQZWCN5LR,1,1491511492569,"{""rt"": 37589, ""trial_type"": ""survey-multi-choice"", ""responses"": ""[\""2\"",\""True\"",\""$0.10\"",\""As many or as few as I wish\"",\""My earnings for each round are equal to the <i>sum</i> of the values of all locations I visit (minus the cost of making observations), and I will be paid the earnings from one of the 8 rounds.\"",\""All of the above.\""]"", ""internal_node_id"": ""0.0-0.0-1.0"", ""time_elapsed"": 173881, ""questions"": ""[\""How many flights are there per round?\"",\""True or false: The hidden values will change each time I start a new round.\"",\""How much does it cost to observe each hidden value?\"",\""How many hidden values am I allowed to observe in each round?\"",\""Which statement is TRUE?\"",\""What does the feedback teach me?\""]"", ""correct"": [false, true, true, true, true, true], ""trial_index"": 1}"
A12R2U6TBB3OOG:3KWTYT08703MML4YX5AMOWQZWCN5LR,2,1491511497921,"{""rt"": 4351, ""trial_type"": ""instructions"", ""view_history"": ""[{\""page_index\"":0,\""viewing_time\"":1800},{\""page_index\"":1,\""viewing_time\"":926},{\""page_index\"":2,\""viewing_time\"":926},{\""page_index\"":3,\""viewing_time\"":699}]"", ""internal_node_id"": ""0.0-0.1-0.1"", ""time_elapsed"": 179234, ""trial_index"": 2}"
A12R2U6TBB3OOG:3KWTYT08703MML4YX5AMOWQZWCN5LR,3,1491511521318,"{""rt"": 18932, ""trial_type"": ""survey-multi-choice"", ""responses"": ""[\""2\"",\""True\"",\""$0.10\"",\""As many or as few as I wish\"",\""My earnings for each round are equal to the <i>sum</i> of the values of all locations I visit (minus the cost of making observations), and I will be paid the earnings from one of the 8 rounds.\"",\""Whether I observed the rewards of relevant locations.\""]"", ""internal_node_id"": ""0.0-0.1-1.1"", ""time_elapsed"": 202631, ""questions"": ""[\""How many flights are there per round?\"",\""True or false: The hidden values will change each time I start a new round.\"",\""How much does it cost to observe each hidden value?\"",\""How many hidden values am I allowed to observe in each round?\"",\""Which statement is TRUE?\"",\""What does the feedback teach me?\""]"", ""correct"": [false, true, true, true, true, false], ""trial_index"": 3}"
A12R2U6TBB3OOG:3KWTYT08703MML4YX5AMOWQZWCN5LR,4,1491511526095,"{""rt"": 3776, ""trial_type"": ""instructions"", ""view_history"": ""[{\""page_index\"":0,\""viewing_time\"":1153},{\""page_index\"":1,\""viewing_time\"":656},{\""page_index\"":2,\""viewing_time\"":874},{\""page_index\"":3,\""viewing_time\"":1092}]"", ""internal_node_id"": ""0.0-0.2-0.2"", ""time_elapsed"": 207408, ""trial_index"": 4}"
A12R2U6TBB3OOG:3KWTYT08703MML4YX5AMOWQZWCN5LR,5,1491511536748,"{""rt"": 8571, ""trial_type"": ""survey-multi-choice"", ""responses"": ""[\""2\"",\""True\"",\""$0.10\"",\""As many or as few as I wish\"",\""My earnings for each round are equal to the <i>sum</i> of the values of all locations I visit (minus the cost of making observations), and I will be paid the earnings from one of the 8 rounds.\"",\""The duration of the delay tells me how much more money I could have earned by planning and deciding better.\""]"", ""internal_node_id"": ""0.0-0.2-1.2"", ""time_elapsed"": 218061, ""questions"": ""[\""How many flights are there per round?\"",\""True or false: The hidden values will change each time I start a new round.\"",\""How much does it cost to observe each hidden value?\"",\""How many hidden values am I allowed to observe in each round?\"",\""Which statement is TRUE?\"",\""What does the feedback teach me?\""]"", ""correct"": [false, true, true, true, true, false], ""trial_index"": 5}"
A12R2U6TBB3OOG:3KWTYT08703MML4YX5AMOWQZWCN5LR,6,1491511545180,"{""rt"": 7431, ""trial_type"": ""instructions"", ""view_history"": ""[{\""page_index\"":0,\""viewing_time\"":4596},{\""page_index\"":1,\""viewing_time\"":946},{\""page_index\"":2,\""viewing_time\"":951},{\""page_index\"":3,\""viewing_time\"":938}]"", ""internal_node_id"": ""0.0-0.3-0.3"", ""time_elapsed"": 226493, ""trial_index"": 6}"
A12R2U6TBB3OOG:3KWTYT08703MML4YX5AMOWQZWCN5LR,7,1491511560991,"{""rt"": 8052, ""trial_type"": ""survey-multi-choice"", ""responses"": ""[\""4\"",\""True\"",\""$0.10\"",\""As many or as few as I wish\"",\""My earnings for each round are equal to the <i>sum</i> of the values of all locations I visit (minus the cost of making observations), and I will be paid the earnings from one of the 8 rounds.\"",\""All of the above.\""]"", ""internal_node_id"": ""0.0-0.3-1.3"", ""time_elapsed"": 242304, ""questions"": ""[\""How many flights are there per round?\"",\""True or false: The hidden values will change each time I start a new round.\"",\""How much does it cost to observe each hidden value?\"",\""How many hidden values am I allowed to observe in each round?\"",\""Which statement is TRUE?\"",\""What does the feedback teach me?\""]"", ""correct"": [false, true, true, true, true, true], ""trial_index"": 7}"
A12R2U6TBB3OOG:3KWTYT08703MML4YX5AMOWQZWCN5LR,8,1491511574934,"{""rt"": 12942, ""trial_type"": ""instructions"", ""view_history"": ""[{\""page_index\"":0,\""viewing_time\"":10315},{\""page_index\"":1,\""viewing_time\"":520},{\""page_index\"":2,\""viewing_time\"":898},{\""page_index\"":3,\""viewing_time\"":1209}]"", ""internal_node_id"": ""0.0-0.4-0.4"", ""time_elapsed"": 256247, ""trial_index"": 8}"
A12R2U6TBB3OOG:3KWTYT08703MML4YX5AMOWQZWCN5LR,9,1491511582875,"{""rt"": 6923, ""trial_type"": ""survey-multi-choice"", ""responses"": ""[\""3\"",\""True\"",\""$0.10\"",\""As many or as few as I wish\"",\""My earnings for each round are equal to the <i>sum</i> of the values of all locations I visit (minus the cost of making observations), and I will be paid the earnings from one of the 8 rounds.\"",\""All of the above.\""]"", ""internal_node_id"": ""0.0-0.4-1.4"", ""time_elapsed"": 264188, ""questions"": ""[\""How many flights are there per round?\"",\""True or false: The hidden values will change each time I start a new round.\"",\""How much does it cost to observe each hidden value?\"",\""How many hidden values am I allowed to observe in each round?\"",\""Which statement is TRUE?\"",\""What does the feedback teach me?\""]"", ""correct"": [true, true, true, true, true, true], ""trial_index"": 9}"
A12R2U6TBB3OOG:3KWTYT08703MML4YX5AMOWQZWCN5LR,10,1491511707773,"{""rt"": [29890, 1236, 471], ""trial_type"": ""graph"", ""infoCost"": 0.1, ""minTime"": 45, ""delays"": [7, 0, 0], ""actionTimes"": [29890, 38887, 40228], ""time_elapsed"": 389086, ""actions"": [""right"", ""right"", ""up""], ""trialIndex"": 1, ""score"": 33, ""trial_index"": 10, ""internal_node_id"": ""0.0-1.0-0.0"", ""clickTimes"": [1748, 6133, 6844, 7867, 8998, 9484, 10395, 14413, 23417, 29369], ""path"": [1, 2, 6, 10], ""trialID"": 3, ""clicks"": [""2"", ""3"", ""4"", ""5"", ""17"", ""9"", ""16"", ""6"", ""10"", ""11""], ""condition"": 1}"
A12R2U6TBB3OOG:3KWTYT08703MML4YX5AMOWQZWCN5LR,11,1491511766122,"{""rt"": [26773, 355, 21], ""trial_type"": ""graph"", ""infoCost"": 0.1, ""minTime"": 45, ""delays"": [0, 0, 0], ""actionTimes"": [26773, 27653, 28392], ""time_elapsed"": 447435, ""actions"": [""right"", ""right"", ""up""], ""trialIndex"": 2, ""score"": 20.4, ""trial_index"": 11, ""internal_node_id"": ""0.0-1.0-1.0"", ""clickTimes"": [3528, 4378, 5330, 5860, 6856, 7974, 9403, 11026, 12356, 12904, 13878, 15003, 17996, 20334, 21105, 21697], ""path"": [1, 2, 6, 10], ""trialID"": 7, ""clicks"": [""2"", ""3"", ""4"", ""5"", ""6"", ""10"", ""11"", ""7"", ""12"", ""13"", ""8"", ""14"", ""15"", ""9"", ""16"", ""17""], ""condition"": 1}"
A12R2U6TBB3OOG:3KWTYT08703MML4YX5AMOWQZWCN5LR,12,1491511815285,"{""rt"": [24470, 89, 3], ""trial_type"": ""graph"", ""infoCost"": 0.1, ""minTime"": 45, ""delays"": [0, 0, 0], ""actionTimes"": [24470, 25221, 26048], ""time_elapsed"": 496598, ""actions"": [""left"", ""left"", ""up""], ""trialIndex"": 3, ""score"": 32.6, ""trial_index"": 12, ""internal_node_id"": ""0.0-1.0-2.0"", ""clickTimes"": [677, 2082, 2700, 3228, 3828, 5928, 6464, 7186, 8588, 14302, 15326, 17642, 20292, 20870], ""path"": [1, 4, 8, 14], ""trialID"": 5, ""clicks"": [""2"", ""3"", ""4"", ""5"", ""7"", ""12"", ""13"", ""8"", ""14"", ""15"", ""9"", ""6"", ""10"", ""11""], ""condition"": 1}"
A12R2U6TBB3OOG:3KWTYT08703MML4YX5AMOWQZWCN5LR,13,1491511864168,"{""rt"": [14523, 2, 2], ""trial_type"": ""graph"", ""infoCost"": 0.1, ""minTime"": 45, ""delays"": [-2, 0, 0], ""actionTimes"": [14523, 15306, 16139], ""time_elapsed"": 545481, ""actions"": [""down"", ""down"", ""left""], ""trialIndex"": 4, ""score"": 45, ""trial_index"": 13, ""internal_node_id"": ""0.0-1.0-3.0"", ""clickTimes"": [1622, 2585, 3289, 3867, 4714, 6832, 7303, 8498, 9699, 10315], ""path"": [1, 5, 9, 16], ""trialID"": 1, ""clicks"": [""2"", ""3"", ""4"", ""5"", ""7"", ""12"", ""13"", ""9"", ""17"", ""16""], ""condition"": 1}"
A12R2U6TBB3OOG:3KWTYT08703MML4YX5AMOWQZWCN5LR,14,1491511914204,"{""rt"": [20004, 137, 70], ""trial_type"": ""graph"", ""infoCost"": 0.1, ""minTime"": 45, ""delays"": [0, 0, 0], ""actionTimes"": [20005, 20665, 21449], ""time_elapsed"": 595517, ""actions"": [""right"", ""right"", ""up""], ""trialIndex"": 5, ""score"": 32.4, ""trial_index"": 14, ""internal_node_id"": ""0.0-1.0-4.0"", ""clickTimes"": [759, 1527, 2081, 2669, 3667, 5101, 6205, 7231, 7986, 11853, 14269, 15431, 16103, 17425, 17937, 18515], ""path"": [1, 2, 6, 10], ""trialID"": 2, ""clicks"": [""2"", ""3"", ""4"", ""5"", ""9"", ""16"", ""17"", ""6"", ""10"", ""11"", ""8"", ""14"", ""15"", ""7"", ""13"", ""12""], ""condition"": 1}"
A12R2U6TBB3OOG:3KWTYT08703MML4YX5AMOWQZWCN5LR,15,1491511961541,"{""rt"": [17089, 86, 1], ""trial_type"": ""graph"", ""infoCost"": 0.1, ""minTime"": 45, ""delays"": [-1, 0, 0], ""actionTimes"": [17090, 17871, 18628], ""time_elapsed"": 642854, ""actions"": [""left"", ""left"", ""down""], ""trialIndex"": 6, ""score"": 38.7, ""trial_index"": 15, ""internal_node_id"": ""0.0-1.0-5.0"", ""clickTimes"": [465, 1113, 2379, 2926, 4057, 4936, 5583, 6378, 7573, 8099, 11730, 12793, 14579], ""path"": [1, 4, 8, 15], ""trialID"": 0, ""clicks"": [""2"", ""3"", ""4"", ""5"", ""9"", ""16"", ""17"", ""7"", ""12"", ""13"", ""8"", ""14"", ""15""], ""condition"": 1}"
A12R2U6TBB3OOG:3KWTYT08703MML4YX5AMOWQZWCN5LR,16,1491512014711,"{""rt"": [20965, 268, 1], ""trial_type"": ""graph"", ""infoCost"": 0.1, ""minTime"": 45, ""delays"": [-1, 0, 0], ""actionTimes"": [20965, 22061, 22851], ""time_elapsed"": 696023, ""actions"": [""up"", ""up"", ""left""], ""trialIndex"": 7, ""score"": 35.7, ""trial_index"": 16, ""internal_node_id"": ""0.0-1.0-6.0"", ""clickTimes"": [1682, 2404, 3188, 3710, 4446, 5736, 10034, 11940, 13543, 14247, 16138, 17236, 19278], ""path"": [1, 3, 7, 12], ""trialID"": 6, ""clicks"": [""2"", ""3"", ""4"", ""5"", ""7"", ""12"", ""13"", ""8"", ""14"", ""15"", ""6"", ""10"", ""9""], ""condition"": 1}"
A12R2U6TBB3OOG:3KWTYT08703MML4YX5AMOWQZWCN5LR,17,1491512062619,"{""rt"": [12697, 20, 1], ""trial_type"": ""graph"", ""infoCost"": 0.1, ""minTime"": 45, ""delays"": [-1, 0, 0], ""actionTimes"": [12697, 13452, 14228], ""time_elapsed"": 743931, ""actions"": [""down"", ""down"", ""right""], ""trialIndex"": 8, ""score"": 41, ""trial_index"": 17, ""internal_node_id"": ""0.0-1.0-7.0"", ""clickTimes"": [495, 1169, 1713, 2227, 2875, 4357, 4997, 7993, 8859, 11323], ""path"": [1, 5, 9, 17], ""trialID"": 4, ""clicks"": [""2"", ""3"", ""4"", ""5"", ""8"", ""14"", ""15"", ""9"", ""17"", ""16""], ""condition"": 1}"
A12R2U6TBB3OOG:3KWTYT08703MML4YX5AMOWQZWCN5LR,18,1491512073285,"{""rt"": 9657, ""trial_type"": ""button-response"", ""button_pressed"": 0, ""stimulus"": ""<h1 id=\""thiscompletesthehit\"">This completes the HIT</h1>\n\n<p>One or your trials has been randomly selected and we will pay you 5% of your profit on that trial as a bonus. You will be awarded a bonus of $1.02</p>"", ""internal_node_id"": ""0.0-2.0"", ""time_elapsed"": 754598, ""trial_index"": 18}"
A16ANYLVNPKCVG:3URFVVM165INCPBHD7934NTDA2NZUL,0,1491511498789,"{""rt"": 255655, ""trial_type"": ""instructions"", ""view_history"": ""[{\""page_index\"":0,\""viewing_time\"":81169},{\""page_index\"":1,\""viewing_time\"":112189},{\""page_index\"":2,\""viewing_time\"":46044},{\""page_index\"":3,\""viewing_time\"":16252}]"", ""internal_node_id"": ""0.0-0.0-0.0"", ""time_elapsed"": 255655, ""trial_index"": 0}"
A16ANYLVNPKCVG:3URFVVM165INCPBHD7934NTDA2NZUL,1,1491511564855,"{""rt"": 62198, ""trial_type"": ""survey-multi-choice"", ""responses"": ""[\""2\"",\""True\"",\""$0.10\"",\""As many or as few as I wish\"",\""My earnings for each round are equal to the <i>sum</i> of the values of all locations I visit (minus the cost of making observations), and I will be paid the earnings from one of the 8 rounds.\"",\""All of the above.\""]"", ""internal_node_id"": ""0.0-0.0-1.0"", ""time_elapsed"": 321721, ""questions"": ""[\""How many flights are there per round?\"",\""True or false: The hidden values will change each time I start a new round.\"",\""How much does it cost to observe each hidden value?\"",\""How many hidden values am I allowed to observe in each round?\"",\""Which statement is TRUE?\"",\""What does the feedback teach me?\""]"", ""correct"": [false, true, true, true, true, true], ""trial_index"": 1}"
A16ANYLVNPKCVG:3URFVVM165INCPBHD7934NTDA2NZUL,2,1491511622874,"{""rt"": 57018, ""trial_type"": ""instructions"", ""view_history"": ""[{\""page_index\"":0,\""viewing_time\"":13732},{\""page_index\"":1,\""viewing_time\"":22107},{\""page_index\"":2,\""viewing_time\"":9472},{\""page_index\"":3,\""viewing_time\"":11706}]"", ""internal_node_id"": ""0.0-0.1-0.1"", ""time_elapsed"": 379740, ""trial_index"": 2}"
A16ANYLVNPKCVG:3URFVVM165INCPBHD7934NTDA2NZUL,3,1491511672411,"{""rt"": 48526, ""trial_type"": ""survey-multi-choice"", ""responses"": ""[\""3\"",\""True\"",\""$0.10\"",\""As many or as few as I wish\"",\""My earnings for each round are equal to the <i>sum</i> of the values of all locations I visit (minus the cost of making observations), and I will be paid the earnings from one of the 8 rounds.\"",\""All of the above.\""]"", ""internal_node_id"": ""0.0-0.1-1.1"", ""time_elapsed"": 429277, ""questions"": ""[\""How many flights are there per round?\"",\""True or false: The hidden values will change each time I start a new round.\"",\""How much does it cost to observe each hidden value?\"",\""How many hidden values am I allowed to observe in each round?\"",\""Which statement is TRUE?\"",\""What does the feedback teach me?\""]"", ""correct"": [true, true, true, true, true, true], ""trial_index"": 3}"
A16ANYLVNPKCVG:3URFVVM165INCPBHD7934NTDA2NZUL,4,1491511728744,"{""rt"": [20673, 4261, 4227], ""trial_type"": ""graph"", ""infoCost"": 0.1, ""minTime"": 45, ""delays"": [3.18, 0, 0], ""actionTimes"": [20673, 29001, 34071], ""time_elapsed"": 485610, ""actions"": [""right"", ""right"", ""up""], ""trialIndex"": 1, ""score"": 33.6, ""trial_index"": 4, ""internal_node_id"": ""0.0-1.0-0.0"", ""clickTimes"": [9451, 12348, 14428, 32949], ""path"": [1, 2, 6, 10], ""trialID"": 3, ""clicks"": [""2"", ""6"", ""10"", ""11""], ""condition"": 3}"
A16ANYLVNPKCVG:3URFVVM165INCPBHD7934NTDA2NZUL,5,1491511780161,"{""rt"": [18927, 2423, 1353], ""trial_type"": ""graph"", ""infoCost"": 0.1, ""minTime"": 45, ""delays"": [3.18, 0, 0], ""actionTimes"": [18927, 25206, 27363], ""time_elapsed"": 537027, ""actions"": [""up"", ""up"", ""left""], ""trialIndex"": 2, ""score"": 36, ""trial_index"": 5, ""internal_node_id"": ""0.0-1.0-1.0"", ""clickTimes"": [1945, 3525, 5177, 6100, 7766, 8864, 11369, 12238, 13074, 13782], ""path"": [1, 3, 7, 12], ""trialID"": 6, ""clicks"": [""4"", ""3"", ""2"", ""5"", ""7"", ""8"", ""13"", ""12"", ""14"", ""15""], ""condition"": 3}"
A16ANYLVNPKCVG:3URFVVM165INCPBHD7934NTDA2NZUL,6,1491511854880,"{""rt"": [27879, 1164, 1806], ""trial_type"": ""graph"", ""infoCost"": 0.1, ""minTime"": 45, ""delays"": [3.18, 0, 0], ""actionTimes"": [27879, 32712, 35264], ""time_elapsed"": 611746, ""actions"": [""right"", ""right"", ""up""], ""trialIndex"": 3, ""score"": 20.4, ""trial_index"": 6, ""internal_node_id"": ""0.0-1.0-2.0"", ""clickTimes"": [1012, 1735, 2564, 3100, 4223, 4904, 7936, 9929, 10455, 11100, 12279, 12702, 13232, 13849, 14255, 14684], ""path"": [1, 2, 6, 10], ""trialID"": 7, ""clicks"": [""2"", ""3"", ""4"", ""5"", ""6"", ""10"", ""11"", ""7"", ""12"", ""13"", ""8"", ""14"", ""15"", ""16"", ""9"", ""17""], ""condition"": 3}"
A16ANYLVNPKCVG:3URFVVM165INCPBHD7934NTDA2NZUL,7,1491511914657,"{""rt"": [27468, 5104, 762], ""trial_type"": ""graph"", ""infoCost"": 0.1, ""minTime"": 45, ""delays"": [3.18, 0, 0], ""actionTimes"": [27468, 36408, 37962], ""time_elapsed"": 671523, ""actions"": [""left"", ""left"", ""up""], ""trialIndex"": 4, ""score"": 32.5, ""trial_index"": 7, ""internal_node_id"": ""0.0-1.0-3.0"", ""clickTimes"": [1308, 2748, 4147, 5313, 6593, 8213, 8842, 10594, 12136, 13223, 15270, 16651, 19333, 23237, 23886], ""path"": [1, 4, 8, 14], ""trialID"": 5, ""clicks"": [""3"", ""4"", ""2"", ""5"", ""7"", ""12"", ""13"", ""8"", ""14"", ""15"", ""9"", ""16"", ""6"", ""10"", ""11""], ""condition"": 3}"
A16ANYLVNPKCVG:3URFVVM165INCPBHD7934NTDA2NZUL,8,1491511965617,"{""rt"": [15965, 3061, 369], ""trial_type"": ""graph"", ""infoCost"": 0.1, ""minTime"": 45, ""delays"": [3.18, 0, 0], ""actionTimes"": [15965, 22812, 23955], ""time_elapsed"": 722483, ""actions"": [""right"", ""right"", ""up""], ""trialIndex"": 5, ""score"": 32.7, ""trial_index"": 8, ""internal_node_id"": ""0.0-1.0-4.0"", ""clickTimes"": [1450, 2217, 2771, 3388, 4396, 4874, 5556, 6400, 6919, 7421, 9302, 9969, 10711], ""path"": [1, 2, 6, 10], ""trialID"": 2, ""clicks"": [""4"", ""3"", ""2"", ""5"", ""9"", ""16"", ""17"", ""8"", ""14"", ""15"", ""6"", ""10"", ""11""], ""condition"": 3}"
A16ANYLVNPKCVG:3URFVVM165INCPBHD7934NTDA2NZUL,9,1491512048348,"{""rt"": [20427, 892, 410], ""trial_type"": ""graph"", ""infoCost"": 0.1, ""minTime"": 45, ""delays"": [3.18, 0, 0], ""actionTimes"": [20427, 25103, 26283], ""time_elapsed"": 805214, ""actions"": [""left"", ""left"", ""up""], ""trialIndex"": 6, ""score"": 38.7, ""trial_index"": 9, ""internal_node_id"": ""0.0-1.0-5.0"", ""clickTimes"": [1029, 1931, 2651, 3300, 4639, 6688, 7197, 8487, 8992, 9538, 11427, 11831, 16990], ""path"": [1, 4, 8, 14], ""trialID"": 0, ""clicks"": [""2"", ""3"", ""4"", ""5"", ""9"", ""16"", ""17"", ""7"", ""12"", ""13"", ""8"", ""14"", ""15""], ""condition"": 3}"
A16ANYLVNPKCVG:3URFVVM165INCPBHD7934NTDA2NZUL,10,1491512099106,"{""rt"": [14101, 564, 45], ""trial_type"": ""graph"", ""infoCost"": 0.1, ""minTime"": 45, ""delays"": [3.18, 0, 0], ""actionTimes"": [14101, 18532, 19383], ""time_elapsed"": 855971, ""actions"": [""down"", ""down"", ""right""], ""trialIndex"": 7, ""score"": 41, ""trial_index"": 10, ""internal_node_id"": ""0.0-1.0-6.0"", ""clickTimes"": [2410, 3030, 3716, 4380, 5739, 7205, 8062, 9398, 10385, 11239], ""path"": [1, 5, 9, 17], ""trialID"": 4, ""clicks"": [""2"", ""3"", ""4"", ""5"", ""8"", ""14"", ""15"", ""9"", ""16"", ""17""], ""condition"": 3}"
A16ANYLVNPKCVG:3URFVVM165INCPBHD7934NTDA2NZUL,11,1491512150226,"{""rt"": [13703, 513, 75], ""trial_type"": ""graph"", ""infoCost"": 0.1, ""minTime"": 45, ""delays"": [3.18, 0, 0], ""actionTimes"": [13703, 18121, 19013], ""time_elapsed"": 907092, ""actions"": [""down"", ""down"", ""left""], ""trialIndex"": 8, ""score"": 45, ""trial_index"": 11, ""internal_node_id"": ""0.0-1.0-7.0"", ""clickTimes"": [1243, 2601, 3807, 5797, 7022, 8111, 8784, 10272, 11048, 12153], ""path"": [1, 5, 9, 16], ""trialID"": 1, ""clicks"": [""3"", ""2"", ""5"", ""4"", ""7"", ""12"", ""13"", ""9"", ""16"", ""17""], ""condition"": 3}"
A16ANYLVNPKCVG:3URFVVM165INCPBHD7934NTDA2NZUL,12,1491512156570,"{""rt"": 5334, ""trial_type"": ""button-response"", ""button_pressed"": 0, ""stimulus"": ""<h1 id=\""thiscompletesthehit\"">This completes the HIT</h1>\n\n<p>One or your trials has been randomly selected and we will pay you 5% of your profit on that trial as a bonus. You will be awarded a bonus of $1.94</p>"", ""internal_node_id"": ""0.0-2.0"", ""time_elapsed"": 913436, ""trial_index"": 12}"
A189V9652OVX56:354P56DE9K3OD2D757MKY2IQFCQ7SM,0,1491511387226,"{""rt"": 104359, ""trial_type"": ""instructions"", ""view_history"": ""[{\""page_index\"":0,\""viewing_time\"":62127},{\""page_index\"":1,\""viewing_time\"":15216},{\""page_index\"":2,\""viewing_time\"":7574},{\""page_index\"":3,\""viewing_time\"":19439}]"", ""internal_node_id"": ""0.0-0.0-0.0"", ""time_elapsed"": 104362, ""trial_index"": 0}"
A189V9652OVX56:354P56DE9K3OD2D757MKY2IQFCQ7SM,1,1491511437754,"{""rt"": 44367, ""trial_type"": ""survey-multi-choice"", ""responses"": ""[\""2\"",\""True\"",\""$0.10\"",\""As many or as few as I wish\"",\""My earnings for each round are equal to the value of one of the locations I visit (minus the cost of making observations), and I will actually be paid the earnings from one of the 8 rounds.\"",\""Whether I chose the move that was best according to the information I had.\""]"", ""internal_node_id"": ""0.0-0.0-1.0"", ""time_elapsed"": 154891, ""questions"": ""[\""How many flights are there per round?\"",\""True or false: The hidden values will change each time I start a new round.\"",\""How much does it cost to observe each hidden value?\"",\""How many hidden values am I allowed to observe in each round?\"",\""Which statement is TRUE?\"",\""What does the feedback teach me?\""]"", ""correct"": [false, true, true, true, false, false], ""trial_index"": 1}"
A189V9652OVX56:354P56DE9K3OD2D757MKY2IQFCQ7SM,2,1491511549029,"{""rt"": 110270, ""trial_type"": ""instructions"", ""view_history"": ""[{\""page_index\"":0,\""viewing_time\"":28284},{\""page_index\"":1,\""viewing_time\"":39424},{\""page_index\"":2,\""viewing_time\"":14841},{\""page_index\"":3,\""viewing_time\"":7452},{\""page_index\"":2,\""viewing_time\"":2123},{\""page_index\"":1,\""viewing_time\"":806},{\""page_index\"":0,\""viewing_time\"":13954},{\""page_index\"":1,\""viewing_time\"":887},{\""page_index\"":2,\""viewing_time\"":1685},{\""page_index\"":3,\""viewing_time\"":813}]"", ""internal_node_id"": ""0.0-0.1-0.1"", ""time_elapsed"": 266166, ""trial_index"": 2}"
A189V9652OVX56:354P56DE9K3OD2D757MKY2IQFCQ7SM,3,1491511591498,"{""rt"": 39112, ""trial_type"": ""survey-multi-choice"", ""responses"": ""[\""2\"",\""True\"",\""$0.10\"",\""As many or as few as I wish\"",\""My earnings for each round are equal to the <i>sum</i> of the values of all locations I visit (minus the cost of making observations), and I will be paid the earnings from one of the 8 rounds.\"",\""All of the above.\""]"", ""internal_node_id"": ""0.0-0.1-1.1"", ""time_elapsed"": 308635, ""questions"": ""[\""How many flights are there per round?\"",\""True or false: The hidden values will change each time I start a new round.\"",\""How much does it cost to observe each hidden value?\"",\""How many hidden values am I allowed to observe in each round?\"",\""Which statement is TRUE?\"",\""What does the feedback teach me?\""]"", ""correct"": [false, true, true, true, true, true], ""trial_index"": 3}"
A189V9652OVX56:354P56DE9K3OD2D757MKY2IQFCQ7SM,4,1491511688508,"{""rt"": 95896, ""trial_type"": ""instructions"", ""view_history"": ""[{\""page_index\"":0,\""viewing_time\"":17172},{\""page_index\"":1,\""viewing_time\"":31516},{\""page_index\"":2,\""viewing_time\"":31586},{\""page_index\"":3,\""viewing_time\"":15620}]"", ""internal_node_id"": ""0.0-0.2-0.2"", ""time_elapsed"": 405645, ""trial_index"": 4}"
A189V9652OVX56:354P56DE9K3OD2D757MKY2IQFCQ7SM,5,1491511757390,"{""rt"": 64620, ""trial_type"": ""survey-multi-choice"", ""responses"": ""[\""2\"",\""True\"",\""$0.10\"",\""As many or as few as I wish\"",\""My earnings for each round are equal to the value of one of the locations I visit (minus the cost of making observations), and I will actually be paid the earnings from one of the 8 rounds.\"",\""All of the above.\""]"", ""internal_node_id"": ""0.0-0.2-1.2"", ""time_elapsed"": 474526, ""questions"": ""[\""How many flights are there per round?\"",\""True or false: The hidden values will change each time I start a new round.\"",\""How much does it cost to observe each hidden value?\"",\""How many hidden values am I allowed to observe in each round?\"",\""Which statement is TRUE?\"",\""What does the feedback teach me?\""]"", ""correct"": [false, true, true, true, false, true], ""trial_index"": 5}"
A189V9652OVX56:354P56DE9K3OD2D757MKY2IQFCQ7SM,6,1491511818301,"{""rt"": 59903, ""trial_type"": ""instructions"", ""view_history"": ""[{\""page_index\"":0,\""viewing_time\"":2766},{\""page_index\"":1,\""viewing_time\"":36032},{\""page_index\"":2,\""viewing_time\"":12882},{\""page_index\"":3,\""viewing_time\"":8221}]"", ""internal_node_id"": ""0.0-0.3-0.3"", ""time_elapsed"": 535438, ""trial_index"": 6}"
A189V9652OVX56:354P56DE9K3OD2D757MKY2IQFCQ7SM,7,1491511878645,"{""rt"": 57499, ""trial_type"": ""survey-multi-choice"", ""responses"": ""[\""2\"",\""True\"",\""$0.10\"",\""As many or as few as I wish\"",\""My earnings for each round are equal to the <i>sum</i> of the values of all locations I visit (minus the cost of making observations), and I will be paid the earnings from one of the 8 rounds.\"",\""All of the above.\""]"", ""internal_node_id"": ""0.0-0.3-1.3"", ""time_elapsed"": 595782, ""questions"": ""[\""How many flights are there per round?\"",\""True or false: The hidden values will change each time I start a new round.\"",\""How much does it cost to observe each hidden value?\"",\""How many hidden values am I allowed to observe in each round?\"",\""Which statement is TRUE?\"",\""What does the feedback teach me?\""]"", ""correct"": [false, true, true, true, true, true], ""trial_index"": 7}"
A189V9652OVX56:354P56DE9K3OD2D757MKY2IQFCQ7SM,8,1491511939181,"{""rt"": 59527, ""trial_type"": ""instructions"", ""view_history"": ""[{\""page_index\"":0,\""viewing_time\"":24940},{\""page_index\"":1,\""viewing_time\"":3660},{\""page_index\"":2,\""viewing_time\"":3339},{\""page_index\"":3,\""viewing_time\"":6854},{\""page_index\"":2,\""viewing_time\"":4099},{\""page_index\"":1,\""viewing_time\"":14342},{\""page_index\"":2,\""viewing_time\"":1628},{\""page_index\"":3,\""viewing_time\"":663}]"", ""internal_node_id"": ""0.0-0.4-0.4"", ""time_elapsed"": 656318, ""trial_index"": 8}"
A189V9652OVX56:354P56DE9K3OD2D757MKY2IQFCQ7SM,9,1491512026701,"{""rt"": 82685, ""trial_type"": ""survey-multi-choice"", ""responses"": ""[\""2\"",\""True\"",\""$0.10\"",\""As many or as few as I wish\"",\""My earnings for each round are equal to the value of one of the locations I visit (minus the cost of making observations), and I will actually be paid the earnings from one of the 8 rounds.\"",\""All of the above.\""]"", ""internal_node_id"": ""0.0-0.4-1.4"", ""time_elapsed"": 743838, ""questions"": ""[\""How many flights are there per round?\"",\""True or false: The hidden values will change each time I start a new round.\"",\""How much does it cost to observe each hidden value?\"",\""How many hidden values am I allowed to observe in each round?\"",\""Which statement is TRUE?\"",\""What does the feedback teach me?\""]"", ""correct"": [false, true, true, true, false, true], ""trial_index"": 9}"
A189V9652OVX56:354P56DE9K3OD2D757MKY2IQFCQ7SM,10,1491512102265,"{""rt"": 74555, ""trial_type"": ""instructions"", ""view_history"": ""[{\""page_index\"":0,\""viewing_time\"":27834},{\""page_index\"":1,\""viewing_time\"":30733},{\""page_index\"":2,\""viewing_time\"":5096},{\""page_index\"":3,\""viewing_time\"":10889}]"", ""internal_node_id"": ""0.0-0.5-0.5"", ""time_elapsed"": 819402, ""trial_index"": 10}"
A189V9652OVX56:354P56DE9K3OD2D757MKY2IQFCQ7SM,11,1491512137376,"{""rt"": 32400, ""trial_type"": ""survey-multi-choice"", ""responses"": ""[\""2\"",\""True\"",\""$0.10\"",\""As many or as few as I wish\"",\""My earnings for each round are equal to the <i>sum</i> of the values of all locations I visit (minus the cost of making observations), and I will be paid the earnings from one of the 8 rounds.\"",\""All of the above.\""]"", ""internal_node_id"": ""0.0-0.5-1.5"", ""time_elapsed"": 854513, ""questions"": ""[\""How many flights are there per round?\"",\""True or false: The hidden values will change each time I start a new round.\"",\""How much does it cost to observe each hidden value?\"",\""How many hidden values am I allowed to observe in each round?\"",\""Which statement is TRUE?\"",\""What does the feedback teach me?\""]"", ""correct"": [false, true, true, true, true, true], ""trial_index"": 11}"
A189V9652OVX56:354P56DE9K3OD2D757MKY2IQFCQ7SM,12,1491512189897,"{""rt"": 51509, ""trial_type"": ""instructions"", ""view_history"": ""[{\""page_index\"":0,\""viewing_time\"":14287},{\""page_index\"":1,\""viewing_time\"":20669},{\""page_index\"":2,\""viewing_time\"":10726},{\""page_index\"":3,\""viewing_time\"":5825}]"", ""internal_node_id"": ""0.0-0.6-0.6"", ""time_elapsed"": 907034, ""trial_index"": 12}"
A189V9652OVX56:354P56DE9K3OD2D757MKY2IQFCQ7SM,13,1491512231375,"{""rt"": 37328, ""trial_type"": ""survey-multi-choice"", ""responses"": ""[\""2\"",\""True\"",\""$0.10\"",\""As many or as few as I wish\"",\""My earnings for each round are equal to the <i>sum</i> of the values of all locations I visit (minus the cost of making observations), and I will be paid the earnings from one of the 8 rounds.\"",\""The duration of the delay tells me how much more money I could have earned by planning and deciding better.\""]"", ""internal_node_id"": ""0.0-0.6-1.6"", ""time_elapsed"": 948512, ""questions"": ""[\""How many flights are there per round?\"",\""True or false: The hidden values will change each time I start a new round.\"",\""How much does it cost to observe each hidden value?\"",\""How many hidden values am I allowed to observe in each round?\"",\""Which statement is TRUE?\"",\""What does the feedback teach me?\""]"", ""correct"": [false, true, true, true, true, false], ""trial_index"": 13}"
A189V9652OVX56:354P56DE9K3OD2D757MKY2IQFCQ7SM,14,1491512256815,"{""rt"": 24427, ""trial_type"": ""instructions"", ""view_history"": ""[{\""page_index\"":0,\""viewing_time\"":2044},{\""page_index\"":1,\""viewing_time\"":893},{\""page_index\"":2,\""viewing_time\"":19627},{\""page_index\"":3,\""viewing_time\"":1862}]"", ""internal_node_id"": ""0.0-0.7-0.7"", ""time_elapsed"": 973952, ""trial_index"": 14}"
A189V9652OVX56:354P56DE9K3OD2D757MKY2IQFCQ7SM,15,1491512338634,"{""rt"": 78292, ""trial_type"": ""survey-multi-choice"", ""responses"": ""[\""2\"",\""True\"",\""$0.10\"",\""As many or as few as I wish\"",\""My earnings for each round are equal to the <i>sum</i> of the values of all locations I visit (minus the cost of making observations), but these earnings aren't real money.\"",\""All of the above.\""]"", ""internal_node_id"": ""0.0-0.7-1.7"", ""time_elapsed"": 1055771, ""questions"": ""[\""How many flights are there per round?\"",\""True or false: The hidden values will change each time I start a new round.\"",\""How much does it cost to observe each hidden value?\"",\""How many hidden values am I allowed to observe in each round?\"",\""Which statement is TRUE?\"",\""What does the feedback teach me?\""]"", ""correct"": [false, true, true, true, false, true], ""trial_index"": 15}"
A189V9652OVX56:354P56DE9K3OD2D757MKY2IQFCQ7SM,16,1491512398272,"{""rt"": 58630, ""trial_type"": ""instructions"", ""view_history"": ""[{\""page_index\"":0,\""viewing_time\"":3877},{\""page_index\"":1,\""viewing_time\"":34281},{\""page_index\"":2,\""viewing_time\"":11314},{\""page_index\"":3,\""viewing_time\"":9156}]"", ""internal_node_id"": ""0.0-0.8-0.8"", ""time_elapsed"": 1115409, ""trial_index"": 16}"
A189V9652OVX56:354P56DE9K3OD2D757MKY2IQFCQ7SM,17,1491512421563,"{""rt"": 21126, ""trial_type"": ""survey-multi-choice"", ""responses"": ""[\""1\"",\""True\"",\""$0.10\"",\""As many or as few as I wish\"",\""My earnings for each round are equal to the <i>sum</i> of the values of all locations I visit (minus the cost of making observations), and I will be paid the earnings from one of the 8 rounds.\"",\""All of the above.\""]"", ""internal_node_id"": ""0.0-0.8-1.8"", ""time_elapsed"": 1138700, ""questions"": ""[\""How many flights are there per round?\"",\""True or false: The hidden values will change each time I start a new round.\"",\""How much does it cost to observe each hidden value?\"",\""How many hidden values am I allowed to observe in each round?\"",\""Which statement is TRUE?\"",\""What does the feedback teach me?\""]"", ""correct"": [false, true, true, true, true, true], ""trial_index"": 17}"
A189V9652OVX56:354P56DE9K3OD2D757MKY2IQFCQ7SM,18,1491512443240,"{""rt"": 20482, ""trial_type"": ""instructions"", ""view_history"": ""[{\""page_index\"":0,\""viewing_time\"":1618},{\""page_index\"":1,\""viewing_time\"":16253},{\""page_index\"":2,\""viewing_time\"":1406},{\""page_index\"":3,\""viewing_time\"":1203}]"", ""internal_node_id"": ""0.0-0.9-0.9"", ""time_elapsed"": 1160377, ""trial_index"": 18}"
A189V9652OVX56:354P56DE9K3OD2D757MKY2IQFCQ7SM,19,1491512458830,"{""rt"": 14138, ""trial_type"": ""survey-multi-choice"", ""responses"": ""[\""3\"",\""True\"",\""$0.10\"",\""As many or as few as I wish\"",\""My earnings for each round are equal to the <i>sum</i> of the values of all locations I visit (minus the cost of making observations), and I will be paid the earnings from one of the 8 rounds.\"",\""All of the above.\""]"", ""internal_node_id"": ""0.0-0.9-1.9"", ""time_elapsed"": 1175967, ""questions"": ""[\""How many flights are there per round?\"",\""True or false: The hidden values will change each time I start a new round.\"",\""How much does it cost to observe each hidden value?\"",\""How many hidden values am I allowed to observe in each round?\"",\""Which statement is TRUE?\"",\""What does the feedback teach me?\""]"", ""correct"": [true, true, true, true, true, true], ""trial_index"": 19}"
A19134KP9PBNXT:3HL8HNGX451JNGWEEKK55ZQHLCKF9N,0,1491511490267,"{""rt"": 155009, ""trial_type"": ""instructions"", ""view_history"": ""[{\""page_index\"":0,\""viewing_time\"":43208},{\""page_index\"":1,\""viewing_time\"":78342},{\""page_index\"":2,\""viewing_time\"":19123},{\""page_index\"":3,\""viewing_time\"":14335}]"", ""internal_node_id"": ""0.0-0.0-0.0"", ""time_elapsed"": 155011, ""trial_index"": 0}"
A19134KP9PBNXT:3HL8HNGX451JNGWEEKK55ZQHLCKF9N,1,1491511627461,"{""rt"": 133115, ""trial_type"": ""survey-multi-choice"", ""responses"": ""[\""1\"",\""True\"",\""$0.25\"",\""As many or as few as I wish\"",\""My earnings for each round are equal to the <i>sum</i> of the values of all locations I visit (minus the cost of making observations), and I will be paid the earnings from one of the 8 rounds.\"",\""All of the above.\""]"", ""internal_node_id"": ""0.0-0.0-1.0"", ""time_elapsed"": 292204, ""questions"": ""[\""How many flights are there per round?\"",\""True or false: The hidden values will change each time I start a new round.\"",\""How much does it cost to observe each hidden value?\"",\""How many hidden values am I allowed to observe in each round?\"",\""Which statement is TRUE?\"",\""What does the feedback teach me?\""]"", ""correct"": [false, true, false, true, true, true], ""trial_index"": 1}"
A19134KP9PBNXT:3HL8HNGX451JNGWEEKK55ZQHLCKF9N,2,1491511685677,"{""rt"": 57212, ""trial_type"": ""instructions"", ""view_history"": ""[{\""page_index\"":0,\""viewing_time\"":15725},{\""page_index\"":1,\""viewing_time\"":24693},{\""page_index\"":2,\""viewing_time\"":7264},{\""page_index\"":3,\""viewing_time\"":9529}]"", ""internal_node_id"": ""0.0-0.1-0.1"", ""time_elapsed"": 350421, ""trial_index"": 2}"
A19134KP9PBNXT:3HL8HNGX451JNGWEEKK55ZQHLCKF9N,3,1491511728483,"{""rt"": 39862, ""trial_type"": ""survey-multi-choice"", ""responses"": ""[\""2\"",\""True\"",\""$0.00\"",\""As many or as few as I wish\"",\""My earnings for each round are equal to the <i>sum</i> of the values of all locations I visit (minus the cost of making observations), and I will be paid the earnings from one of the 8 rounds.\"",\""All of the above.\""]"", ""internal_node_id"": ""0.0-0.1-1.1"", ""time_elapsed"": 393227, ""questions"": ""[\""How many flights are there per round?\"",\""True or false: The hidden values will change each time I start a new round.\"",\""How much does it cost to observe each hidden value?\"",\""How many hidden values am I allowed to observe in each round?\"",\""Which statement is TRUE?\"",\""What does the feedback teach me?\""]"", ""correct"": [false, true, false, true, true, true], ""trial_index"": 3}"
A19134KP9PBNXT:3HL8HNGX451JNGWEEKK55ZQHLCKF9N,4,1491511790715,"{""rt"": 61216, ""trial_type"": ""instructions"", ""view_history"": ""[{\""page_index\"":0,\""viewing_time\"":6318},{\""page_index\"":1,\""viewing_time\"":22528},{\""page_index\"":2,\""viewing_time\"":20819},{\""page_index\"":3,\""viewing_time\"":11550}]"", ""internal_node_id"": ""0.0-0.2-0.2"", ""time_elapsed"": 455459, ""trial_index"": 4}"
A19134KP9PBNXT:3HL8HNGX451JNGWEEKK55ZQHLCKF9N,5,1491511840515,"{""rt"": 47594, ""trial_type"": ""survey-multi-choice"", ""responses"": ""[\""2\"",\""True\"",\""$0.00\"",\""As many or as few as I wish\"",\""My earnings for each round are equal to the value of one of the locations I visit (minus the cost of making observations), and I will actually be paid the earnings from one of the 8 rounds.\"",\""All of the above.\""]"", ""internal_node_id"": ""0.0-0.2-1.2"", ""time_elapsed"": 505259, ""questions"": ""[\""How many flights are there per round?\"",\""True or false: The hidden values will change each time I start a new round.\"",\""How much does it cost to observe each hidden value?\"",\""How many hidden values am I allowed to observe in each round?\"",\""Which statement is TRUE?\"",\""What does the feedback teach me?\""]"", ""correct"": [false, true, false, true, false, true], ""trial_index"": 5}"
A19134KP9PBNXT:3HL8HNGX451JNGWEEKK55ZQHLCKF9N,6,1491511863050,"{""rt"": 21533, ""trial_type"": ""instructions"", ""view_history"": ""[{\""page_index\"":0,\""viewing_time\"":14965},{\""page_index\"":1,\""viewing_time\"":4432},{\""page_index\"":2,\""viewing_time\"":1312},{\""page_index\"":3,\""viewing_time\"":823}]"", ""internal_node_id"": ""0.0-0.3-0.3"", ""time_elapsed"": 527794, ""trial_index"": 6}"
A19134KP9PBNXT:3HL8HNGX451JNGWEEKK55ZQHLCKF9N,7,1491511882875,"{""rt"": 17459, ""trial_type"": ""survey-multi-choice"", ""responses"": ""[\""2\"",\""True\"",\""$0.10\"",\""As many or as few as I wish\"",\""My earnings for each round are equal to the value of one of the locations I visit (minus the cost of making observations), and I will actually be paid the earnings from one of the 8 rounds.\"",\""All of the above.\""]"", ""internal_node_id"": ""0.0-0.3-1.3"", ""time_elapsed"": 547619, ""questions"": ""[\""How many flights are there per round?\"",\""True or false: The hidden values will change each time I start a new round.\"",\""How much does it cost to observe each hidden value?\"",\""How many hidden values am I allowed to observe in each round?\"",\""Which statement is TRUE?\"",\""What does the feedback teach me?\""]"", ""correct"": [false, true, true, true, false, true], ""trial_index"": 7}"
A19134KP9PBNXT:3HL8HNGX451JNGWEEKK55ZQHLCKF9N,8,1491511893971,"{""rt"": 10095, ""trial_type"": ""instructions"", ""view_history"": ""[{\""page_index\"":0,\""viewing_time\"":2254},{\""page_index\"":1,\""viewing_time\"":3856},{\""page_index\"":2,\""viewing_time\"":2384},{\""page_index\"":3,\""viewing_time\"":1600}]"", ""internal_node_id"": ""0.0-0.4-0.4"", ""time_elapsed"": 558715, ""trial_index"": 8}"
A19134KP9PBNXT:3HL8HNGX451JNGWEEKK55ZQHLCKF9N,9,1491511915732,"{""rt"": 19500, ""trial_type"": ""survey-multi-choice"", ""responses"": ""[\""2\"",\""True\"",\""$0.10\"",\""As many or as few as I wish\"",\""My earnings for each round are equal to the <i>sum</i> of the values of all locations I visit (minus the cost of making observations), and I will be paid the earnings from one of the 8 rounds.\"",\""All of the above.\""]"", ""internal_node_id"": ""0.0-0.4-1.4"", ""time_elapsed"": 580475, ""questions"": ""[\""How many flights are there per round?\"",\""True or false: The hidden values will change each time I start a new round.\"",\""How much does it cost to observe each hidden value?\"",\""How many hidden values am I allowed to observe in each round?\"",\""Which statement is TRUE?\"",\""What does the feedback teach me?\""]"", ""correct"": [false, true, true, true, true, true], ""trial_index"": 9}"
A19134KP9PBNXT:3HL8HNGX451JNGWEEKK55ZQHLCKF9N,10,1491511973156,"{""rt"": 56413, ""trial_type"": ""instructions"", ""view_history"": ""[{\""page_index\"":0,\""viewing_time\"":13708},{\""page_index\"":1,\""viewing_time\"":14175},{\""page_index\"":2,\""viewing_time\"":20721},{\""page_index\"":3,\""viewing_time\"":7808}]"", ""internal_node_id"": ""0.0-0.5-0.5"", ""time_elapsed"": 637900, ""trial_index"": 10}"
A19134KP9PBNXT:3HL8HNGX451JNGWEEKK55ZQHLCKF9N,11,1491512023474,"{""rt"": 47942, ""trial_type"": ""survey-multi-choice"", ""responses"": ""[\""2\"",\""True\"",\""$0.10\"",\""As many or as few as I wish\"",\""My earnings for each round are equal to the value of one of the locations I visit (minus the cost of making observations), and I will actually be paid the earnings from one of the 8 rounds.\"",\""All of the above.\""]"", ""internal_node_id"": ""0.0-0.5-1.5"", ""time_elapsed"": 688218, ""questions"": ""[\""How many flights are there per round?\"",\""True or false: The hidden values will change each time I start a new round.\"",\""How much does it cost to observe each hidden value?\"",\""How many hidden values am I allowed to observe in each round?\"",\""Which statement is TRUE?\"",\""What does the feedback teach me?\""]"", ""correct"": [false, true, true, true, false, true], ""trial_index"": 11}"
A19134KP9PBNXT:3HL8HNGX451JNGWEEKK55ZQHLCKF9N,12,1491512103499,"{""rt"": 79022, ""trial_type"": ""instructions"", ""view_history"": ""[{\""page_index\"":0,\""viewing_time\"":34805},{\""page_index\"":1,\""viewing_time\"":25385},{\""page_index\"":2,\""viewing_time\"":8991},{\""page_index\"":3,\""viewing_time\"":9840}]"", ""internal_node_id"": ""0.0-0.6-0.6"", ""time_elapsed"": 768243, ""trial_index"": 12}"
A19134KP9PBNXT:3HL8HNGX451JNGWEEKK55ZQHLCKF9N,13,1491512124284,"{""rt"": 18316, ""trial_type"": ""survey-multi-choice"", ""responses"": ""[\""2\"",\""True\"",\""$0.10\"",\""As many or as few as I wish\"",\""My earnings for each round are equal to the value of one of the locations I visit (minus the cost of making observations), and I will actually be paid the earnings from one of the 8 rounds.\"",\""All of the above.\""]"", ""internal_node_id"": ""0.0-0.6-1.6"", ""time_elapsed"": 789027, ""questions"": ""[\""How many flights are there per round?\"",\""True or false: The hidden values will change each time I start a new round.\"",\""How much does it cost to observe each hidden value?\"",\""How many hidden values am I allowed to observe in each round?\"",\""Which statement is TRUE?\"",\""What does the feedback teach me?\""]"", ""correct"": [false, true, true, true, false, true], ""trial_index"": 13}"
A19134KP9PBNXT:3HL8HNGX451JNGWEEKK55ZQHLCKF9N,14,1491512129915,"{""rt"": 4629, ""trial_type"": ""instructions"", ""view_history"": ""[{\""page_index\"":0,\""viewing_time\"":1564},{\""page_index\"":1,\""viewing_time\"":761},{\""page_index\"":2,\""viewing_time\"":1464},{\""page_index\"":3,\""viewing_time\"":839}]"", ""internal_node_id"": ""0.0-0.7-0.7"", ""time_elapsed"": 794659, ""trial_index"": 14}"
A19134KP9PBNXT:3HL8HNGX451JNGWEEKK55ZQHLCKF9N,15,1491512151619,"{""rt"": 19453, ""trial_type"": ""survey-multi-choice"", ""responses"": ""[\""2\"",\""True\"",\""$0.10\"",\""As many or as few as I wish\"",\""My earnings for each round are equal to the value of one of the locations I visit (minus the cost of making observations), and I will actually be paid the earnings from one of the 8 rounds.\"",\""Whether I chose the move that was best according to the information I had.\""]"", ""internal_node_id"": ""0.0-0.7-1.7"", ""time_elapsed"": 816363, ""questions"": ""[\""How many flights are there per round?\"",\""True or false: The hidden values will change each time I start a new round.\"",\""How much does it cost to observe each hidden value?\"",\""How many hidden values am I allowed to observe in each round?\"",\""Which statement is TRUE?\"",\""What does the feedback teach me?\""]"", ""correct"": [false, true, true, true, false, false], ""trial_index"": 15}"
A19134KP9PBNXT:3HL8HNGX451JNGWEEKK55ZQHLCKF9N,16,1491512196428,"{""rt"": 43806, ""trial_type"": ""instructions"", ""view_history"": ""[{\""page_index\"":0,\""viewing_time\"":23791},{\""page_index\"":1,\""viewing_time\"":16624},{\""page_index\"":2,\""viewing_time\"":1749},{\""page_index\"":3,\""viewing_time\"":1641}]"", ""internal_node_id"": ""0.0-0.8-0.8"", ""time_elapsed"": 861171, ""trial_index"": 16}"
A19134KP9PBNXT:3HL8HNGX451JNGWEEKK55ZQHLCKF9N,17,1491512238100,"{""rt"": 39464, ""trial_type"": ""survey-multi-choice"", ""responses"": ""[\""2\"",\""True\"",\""$0.10\"",\""As many or as few as I wish\"",\""My earnings for each round are equal to the value of one of the locations I visit (minus the cost of making observations), and I will actually be paid the earnings from one of the 8 rounds.\"",\""Whether I observed the rewards of relevant locations.\""]"", ""internal_node_id"": ""0.0-0.8-1.8"", ""time_elapsed"": 902844, ""questions"": ""[\""How many flights are there per round?\"",\""True or false: The hidden values will change each time I start a new round.\"",\""How much does it cost to observe each hidden value?\"",\""How many hidden values am I allowed to observe in each round?\"",\""Which statement is TRUE?\"",\""What does the feedback teach me?\""]"", ""correct"": [false, true, true, true, false, false], ""trial_index"": 17}"
A19134KP9PBNXT:3HL8HNGX451JNGWEEKK55ZQHLCKF9N,18,1491512314180,"{""rt"": 75077, ""trial_type"": ""instructions"", ""view_history"": ""[{\""page_index\"":0,\""viewing_time\"":21251},{\""page_index\"":1,\""viewing_time\"":19636},{\""page_index\"":2,\""viewing_time\"":21188},{\""page_index\"":3,\""viewing_time\"":13001}]"", ""internal_node_id"": ""0.0-0.9-0.9"", ""time_elapsed"": 978924, ""trial_index"": 18}"
A19134KP9PBNXT:3HL8HNGX451JNGWEEKK55ZQHLCKF9N,19,1491512340653,"{""rt"": 24275, ""trial_type"": ""survey-multi-choice"", ""responses"": ""[\""1\"",\""True\"",\""$0.10\"",\""As many or as few as I wish\"",\""My earnings for each round are equal to the <i>sum</i> of the values of all locations I visit (minus the cost of making observations), and I will be paid the earnings from one of the 8 rounds.\"",\""All of the above.\""]"", ""internal_node_id"": ""0.0-0.9-1.9"", ""time_elapsed"": 1005396, ""questions"": ""[\""How many flights are there per round?\"",\""True or false: The hidden values will change each time I start a new round.\"",\""How much does it cost to observe each hidden value?\"",\""How many hidden values am I allowed to observe in each round?\"",\""Which statement is TRUE?\"",\""What does the feedback teach me?\""]"", ""correct"": [false, true, true, true, true, true], ""trial_index"": 19}"
A19134KP9PBNXT:3HL8HNGX451JNGWEEKK55ZQHLCKF9N,20,1491512346227,"{""rt"": 4571, ""trial_type"": ""instructions"", ""view_history"": ""[{\""page_index\"":0,\""viewing_time\"":2005},{\""page_index\"":1,\""viewing_time\"":1022},{\""page_index\"":2,\""viewing_time\"":857},{\""page_index\"":3,\""viewing_time\"":687}]"", ""internal_node_id"": ""0.0-0.10-0.10"", ""time_elapsed"": 1010971, ""trial_index"": 20}"
A19134KP9PBNXT:3HL8HNGX451JNGWEEKK55ZQHLCKF9N,21,1491512360308,"{""rt"": 12045, ""trial_type"": ""survey-multi-choice"", ""responses"": ""[\""1\"",\""True\"",\""$0.10\"",\""As many or as few as I wish\"",\""My earnings for each round are equal to the value of one of the locations I visit (minus the cost of making observations), and I will actually be paid the earnings from one of the 8 rounds.\"",\""All of the above.\""]"", ""internal_node_id"": ""0.0-0.10-1.10"", ""time_elapsed"": 1025052, ""questions"": ""[\""How many flights are there per round?\"",\""True or false: The hidden values will change each time I start a new round.\"",\""How much does it cost to observe each hidden value?\"",\""How many hidden values am I allowed to observe in each round?\"",\""Which statement is TRUE?\"",\""What does the feedback teach me?\""]"", ""correct"": [false, true, true, true, false, true], ""trial_index"": 21}"
A19134KP9PBNXT:3HL8HNGX451JNGWEEKK55ZQHLCKF9N,22,1491512364731,"{""rt"": 3422, ""trial_type"": ""instructions"", ""view_history"": ""[{\""page_index\"":0,\""viewing_time\"":1206},{\""page_index\"":1,\""viewing_time\"":864},{\""page_index\"":2,\""viewing_time\"":688},{\""page_index\"":3,\""viewing_time\"":663}]"", ""internal_node_id"": ""0.0-0.11-0.11"", ""time_elapsed"": 1029475, ""trial_index"": 22}"
A19134KP9PBNXT:3HL8HNGX451JNGWEEKK55ZQHLCKF9N,23,1491512377580,"{""rt"": 10679, ""trial_type"": ""survey-multi-choice"", ""responses"": ""[\""3\"",\""True\"",\""$0.10\"",\""As many or as few as I wish\"",\""My earnings for each round are equal to the value of one of the locations I visit (minus the cost of making observations), and I will actually be paid the earnings from one of the 8 rounds.\"",\""All of the above.\""]"", ""internal_node_id"": ""0.0-0.11-1.11"", ""time_elapsed"": 1042324, ""questions"": ""[\""How many flights are there per round?\"",\""True or false: The hidden values will change each time I start a new round.\"",\""How much does it cost to observe each hidden value?\"",\""How many hidden values am I allowed to observe in each round?\"",\""Which statement is TRUE?\"",\""What does the feedback teach me?\""]"", ""correct"": [true, true, true, true, false, true], ""trial_index"": 23}"
A19134KP9PBNXT:3HL8HNGX451JNGWEEKK55ZQHLCKF9N,24,1491512383219,"{""rt"": 4638, ""trial_type"": ""instructions"", ""view_history"": ""[{\""page_index\"":0,\""viewing_time\"":1309},{\""page_index\"":1,\""viewing_time\"":1032},{\""page_index\"":2,\""viewing_time\"":1552},{\""page_index\"":3,\""viewing_time\"":744}]"", ""internal_node_id"": ""0.0-0.12-0.12"", ""time_elapsed"": 1047963, ""trial_index"": 24}"
A19134KP9PBNXT:3HL8HNGX451JNGWEEKK55ZQHLCKF9N,25,1491512411722,"{""rt"": 26278, ""trial_type"": ""survey-multi-choice"", ""responses"": ""[\""1\"",\""True\"",\""$0.10\"",\""As many or as few as I wish\"",\""My earnings for each round are equal to the <i>sum</i> of the values of all locations I visit (minus the cost of making observations), and I will be paid the earnings from one of the 8 rounds.\"",\""All of the above.\""]"", ""internal_node_id"": ""0.0-0.12-1.12"", ""time_elapsed"": 1076466, ""questions"": ""[\""How many flights are there per round?\"",\""True or false: The hidden values will change each time I start a new round.\"",\""How much does it cost to observe each hidden value?\"",\""How many hidden values am I allowed to observe in each round?\"",\""Which statement is TRUE?\"",\""What does the feedback teach me?\""]"", ""correct"": [false, true, true, true, true, true], ""trial_index"": 25}"
A19134KP9PBNXT:3HL8HNGX451JNGWEEKK55ZQHLCKF9N,26,1491512447069,"{""rt"": 34346, ""trial_type"": ""instructions"", ""view_history"": ""[{\""page_index\"":0,\""viewing_time\"":31825},{\""page_index\"":1,\""viewing_time\"":999},{\""page_index\"":2,\""viewing_time\"":735},{\""page_index\"":3,\""viewing_time\"":786}]"", ""internal_node_id"": ""0.0-0.13-0.13"", ""time_elapsed"": 1111813, ""trial_index"": 26}"
A19134KP9PBNXT:3HL8HNGX451JNGWEEKK55ZQHLCKF9N,27,1491512456632,"{""rt"": 8536, ""trial_type"": ""survey-multi-choice"", ""responses"": ""[\""3\"",\""True\"",\""$0.10\"",\""As many or as few as I wish\"",\""My earnings for each round are equal to the <i>sum</i> of the values of all locations I visit (minus the cost of making observations), and I will be paid the earnings from one of the 8 rounds.\"",\""All of the above.\""]"", ""internal_node_id"": ""0.0-0.13-1.13"", ""time_elapsed"": 1121376, ""questions"": ""[\""How many flights are there per round?\"",\""True or false: The hidden values will change each time I start a new round.\"",\""How much does it cost to observe each hidden value?\"",\""How many hidden values am I allowed to observe in each round?\"",\""Which statement is TRUE?\"",\""What does the feedback teach me?\""]"", ""correct"": [true, true, true, true, true, true], ""trial_index"": 27}"
A19134KP9PBNXT:3HL8HNGX451JNGWEEKK55ZQHLCKF9N,28,1491512510719,"{""rt"": [5215, 9061, 1697], ""trial_type"": ""graph"", ""infoCost"": 0.1, ""minTime"": 45, ""delays"": [3.18, 0, 0], ""actionTimes"": [5217, 18275, 20780], ""time_elapsed"": 1175463, ""actions"": [""left"", ""left"", ""up""], ""trialIndex"": 1, ""score"": 10, ""trial_index"": 28, ""internal_node_id"": ""0.0-1.0-0.0"", ""clickTimes"": [], ""path"": [1, 4, 8, 14], ""trialID"": 2, ""clicks"": [], ""condition"": 3}"
A19134KP9PBNXT:3HL8HNGX451JNGWEEKK55ZQHLCKF9N,29,1491512562897,"{""rt"": [5303, 3349, 3919], ""trial_type"": ""graph"", ""infoCost"": 0.1, ""minTime"": 45, ""delays"": [3.18, 0, 0], ""actionTimes"": [5304, 12671, 17390], ""time_elapsed"": 1227640, ""actions"": [""up"", ""up"", ""left""], ""trialIndex"": 2, ""score"": 20.8, ""trial_index"": 29, ""internal_node_id"": ""0.0-1.0-1.0"", ""clickTimes"": [2417, 15697], ""path"": [1, 3, 7, 12], ""trialID"": 1, ""clicks"": [""3"", ""13""], ""condition"": 3}"
A19134KP9PBNXT:3HL8HNGX451JNGWEEKK55ZQHLCKF9N,30,1491512617043,"{""rt"": [8624, 3602, 58], ""trial_type"": ""graph"", ""infoCost"": 0.1, ""minTime"": 45, ""delays"": [3.18, 0, 0], ""actionTimes"": [8624, 16202, 17078], ""time_elapsed"": 1281786, ""actions"": [""up"", ""up"", ""right""], ""trialIndex"": 3, ""score"": 0.6, ""trial_index"": 30, ""internal_node_id"": ""0.0-1.0-2.0"", ""clickTimes"": [866, 4338, 6922, 15243], ""path"": [1, 3, 7, 13], ""trialID"": 5, ""clicks"": [""5"", ""3"", ""2"", ""12""], ""condition"": 3}"
A19134KP9PBNXT:3HL8HNGX451JNGWEEKK55ZQHLCKF9N,31,1491512669849,"{""rt"": [15241, 2017, 1310], ""trial_type"": ""graph"", ""infoCost"": 0.1, ""minTime"": 45, ""delays"": [3.18, 0, 0], ""actionTimes"": [15241, 21298, 23465], ""time_elapsed"": 1334593, ""actions"": [""up"", ""up"", ""right""], ""trialIndex"": 4, ""score"": 14.5, ""trial_index"": 31, ""internal_node_id"": ""0.0-1.0-3.0"", ""clickTimes"": [1132, 3692, 7140, 10581, 12388], ""path"": [1, 3, 7, 13], ""trialID"": 0, ""clicks"": [""2"", ""16"", ""3"", ""7"", ""12""], ""condition"": 3}"
A19134KP9PBNXT:3HL8HNGX451JNGWEEKK55ZQHLCKF9N,32,1491512722473,"{""rt"": [5507, 1033, 3047], ""trial_type"": ""graph"", ""infoCost"": 0.1, ""minTime"": 45, ""delays"": [3.18, 0, 0], ""actionTimes"": [5507, 10514, 14370], ""time_elapsed"": 1387217, ""actions"": [""left"", ""left"", ""down""], ""trialIndex"": 5, ""score"": 27.7, ""trial_index"": 32, ""internal_node_id"": ""0.0-1.0-4.0"", ""clickTimes"": [1920, 4067, 12797], ""path"": [1, 4, 8, 15], ""trialID"": 6, ""clicks"": [""4"", ""8"", ""14""], ""condition"": 3}"
A19134KP9PBNXT:3HL8HNGX451JNGWEEKK55ZQHLCKF9N,33,1491512774619,"{""rt"": [6674, 1274, 1294], ""trial_type"": ""graph"", ""infoCost"": 0.1, ""minTime"": 45, ""delays"": [3.18, 0, 0], ""actionTimes"": [6674, 11993, 14106], ""time_elapsed"": 1439362, ""actions"": [""right"", ""right"", ""up""], ""trialIndex"": 6, ""score"": 33.7, ""trial_index"": 33, ""internal_node_id"": ""0.0-1.0-5.0"", ""clickTimes"": [1077, 5041, 13356], ""path"": [1, 2, 6, 10], ""trialID"": 3, ""clicks"": [""2"", ""6"", ""10""], ""condition"": 3}"
A19134KP9PBNXT:3HL8HNGX451JNGWEEKK55ZQHLCKF9N,34,1491512829665,"{""rt"": [1968, 466, 2783], ""trial_type"": ""graph"", ""infoCost"": 0.1, ""minTime"": 45, ""delays"": [3.18, 0, 0], ""actionTimes"": [1969, 6441, 10026], ""time_elapsed"": 1494409, ""actions"": [""left"", ""left"", ""down""], ""trialIndex"": 7, ""score"": 7.8, ""trial_index"": 34, ""internal_node_id"": ""0.0-1.0-6.0"", ""clickTimes"": [924, 8901], ""path"": [1, 4, 8, 15], ""trialID"": 4, ""clicks"": [""4"", ""14""], ""condition"": 3}"
A19134KP9PBNXT:3HL8HNGX451JNGWEEKK55ZQHLCKF9N,35,1491512880857,"{""rt"": [9672, 1092, 1931], ""trial_type"": ""graph"", ""infoCost"": 0.1, ""minTime"": 45, ""delays"": [3.18, 0, 0], ""actionTimes"": [9673, 14775, 17511], ""time_elapsed"": 1545601, ""actions"": [""right"", ""right"", ""up""], ""trialIndex"": 8, ""score"": 21.6, ""trial_index"": 35, ""internal_node_id"": ""0.0-1.0-7.0"", ""clickTimes"": [993, 4769, 7112, 16466], ""path"": [1, 2, 6, 10], ""trialID"": 7, ""clicks"": [""3"", ""4"", ""2"", ""10""], ""condition"": 3}"
A19134KP9PBNXT:3HL8HNGX451JNGWEEKK55ZQHLCKF9N,36,1491512887269,"{""rt"": 5385, ""trial_type"": ""button-response"", ""button_pressed"": 0, ""stimulus"": ""<h1 id=\""thiscompletesthehit\"">This completes the HIT</h1>\n\n<p>One or your trials has been randomly selected and we will pay you 5% of your profit on that trial as a bonus. You will be awarded a bonus of $0.03</p>"", ""internal_node_id"": ""0.0-2.0"", ""time_elapsed"": 1552013, ""trial_index"": 36}"
A19IWME4DCIU1H:3PB5A5BD0V6LNX4GA7S39OZNR1W7G2,0,1491511437990,"{""rt"": 76522, ""trial_type"": ""instructions"", ""view_history"": ""[{\""page_index\"":0,\""viewing_time\"":24593},{\""page_index\"":1,\""viewing_time\"":34792},{\""page_index\"":2,\""viewing_time\"":17137}]"", ""internal_node_id"": ""0.0-0.0-0.0"", ""time_elapsed"": 76524, ""trial_index"": 0}"
A19IWME4DCIU1H:3PB5A5BD0V6LNX4GA7S39OZNR1W7G2,1,1491511485400,"{""rt"": 43870, ""trial_type"": ""survey-multi-choice"", ""responses"": ""[\""1\"",\""True\"",\""$0.00\"",\""At most 15\"",\""My earnings for each round are equal to the <i>sum</i> of the values of all locations I visit (minus the cost of making observations), and I will be paid the earnings from one of the 8 rounds.\""]"", ""internal_node_id"": ""0.0-0.0-1.0"", ""time_elapsed"": 123934, ""questions"": ""[\""How many flights are there per round?\"",\""True or false: The hidden values will change each time I start a new round.\"",\""How much does it cost to observe each hidden value?\"",\""How many hidden values am I allowed to observe in each round?\"",\""Which statement is TRUE?\""]"", ""correct"": [false, true, false, false, true], ""trial_index"": 1}"
A19IWME4DCIU1H:3PB5A5BD0V6LNX4GA7S39OZNR1W7G2,2,1491511532977,"{""rt"": 46575, ""trial_type"": ""instructions"", ""view_history"": ""[{\""page_index\"":0,\""viewing_time\"":21912},{\""page_index\"":1,\""viewing_time\"":19469},{\""page_index\"":2,\""viewing_time\"":5194}]"", ""internal_node_id"": ""0.0-0.1-0.1"", ""time_elapsed"": 171511, ""trial_index"": 2}"
A19IWME4DCIU1H:3PB5A5BD0V6LNX4GA7S39OZNR1W7G2,3,1491511554668,"{""rt"": 17991, ""trial_type"": ""survey-multi-choice"", ""responses"": ""[\""1\"",\""True\"",\""$0.00\"",\""As many or as few as I wish\"",\""My earnings for each round are equal to the <i>sum</i> of the values of all locations I visit (minus the cost of making observations), and I will be paid the earnings from one of the 8 rounds.\""]"", ""internal_node_id"": ""0.0-0.1-1.1"", ""time_elapsed"": 193202, ""questions"": ""[\""How many flights are there per round?\"",\""True or false: The hidden values will change each time I start a new round.\"",\""How much does it cost to observe each hidden value?\"",\""How many hidden values am I allowed to observe in each round?\"",\""Which statement is TRUE?\""]"", ""correct"": [false, true, false, true, true], ""trial_index"": 3}"
A19IWME4DCIU1H:3PB5A5BD0V6LNX4GA7S39OZNR1W7G2,4,1491511611247,"{""rt"": 55578, ""trial_type"": ""instructions"", ""view_history"": ""[{\""page_index\"":0,\""viewing_time\"":20745},{\""page_index\"":1,\""viewing_time\"":16375},{\""page_index\"":2,\""viewing_time\"":18457}]"", ""internal_node_id"": ""0.0-0.2-0.2"", ""time_elapsed"": 249781, ""trial_index"": 4}"
A19IWME4DCIU1H:3PB5A5BD0V6LNX4GA7S39OZNR1W7G2,5,1491511699451,"{""rt"": 87153, ""trial_type"": ""survey-multi-choice"", ""responses"": ""[\""3\"",\""True\"",\""$0.10\"",\""As many or as few as I wish\"",\""My earnings for each round are equal to the <i>sum</i> of the values of all locations I visit (minus the cost of making observations), and I will be paid the earnings from one of the 8 rounds.\""]"", ""internal_node_id"": ""0.0-0.2-1.2"", ""time_elapsed"": 337984, ""questions"": ""[\""How many flights are there per round?\"",\""True or false: The hidden values will change each time I start a new round.\"",\""How much does it cost to observe each hidden value?\"",\""How many hidden values am I allowed to observe in each round?\"",\""Which statement is TRUE?\""]"", ""correct"": [true, true, true, true, true], ""trial_index"": 5}"
A19IWME4DCIU1H:3PB5A5BD0V6LNX4GA7S39OZNR1W7G2,6,1491511753495,"{""rt"": [4864, 1733, 6981], ""trial_type"": ""graph"", ""infoCost"": 0.1, ""minTime"": 45, ""delays"": [3.18, 0, 0], ""actionTimes"": [4865, 10550, 18263], ""time_elapsed"": 392029, ""actions"": [""down"", ""down"", ""right""], ""trialIndex"": 1, ""score"": 3.7, ""trial_index"": 6, ""internal_node_id"": ""0.0-1.0-0.0"", ""clickTimes"": [3095, 15667, 17213], ""path"": [1, 5, 9, 17], ""trialID"": 2, ""clicks"": [""5"", ""17"", ""16""], ""condition"": 0}"
A19IWME4DCIU1H:3PB5A5BD0V6LNX4GA7S39OZNR1W7G2,7,1491511804431,"{""rt"": [10200, 686, 5944], ""trial_type"": ""graph"", ""infoCost"": 0.1, ""minTime"": 45, ""delays"": [3.18, 0, 0], ""actionTimes"": [10200, 14824, 21504], ""time_elapsed"": 442964, ""actions"": [""up"", ""up"", ""right""], ""trialIndex"": 2, ""score"": 20.7, ""trial_index"": 7, ""internal_node_id"": ""0.0-1.0-1.0"", ""clickTimes"": [8656, 18578, 20429], ""path"": [1, 3, 7, 13], ""trialID"": 1, ""clicks"": [""3"", ""13"", ""12""], ""condition"": 0}"
A19IWME4DCIU1H:3PB5A5BD0V6LNX4GA7S39OZNR1W7G2,8,1491511854037,"{""rt"": [5728, 615, 5172], ""trial_type"": ""graph"", ""infoCost"": 0.1, ""minTime"": 45, ""delays"": [3.18, 0, 0], ""actionTimes"": [5728, 10343, 16328], ""time_elapsed"": 492570, ""actions"": [""down"", ""down"", ""left""], ""trialIndex"": 3, ""score"": 5.5, ""trial_index"": 8, ""internal_node_id"": ""0.0-1.0-2.0"", ""clickTimes"": [1742, 3256, 4639, 12967, 14743], ""path"": [1, 5, 9, 16], ""trialID"": 3, ""clicks"": [""4"", ""3"", ""5"", ""16"", ""17""], ""condition"": 0}"
A19IWME4DCIU1H:3PB5A5BD0V6LNX4GA7S39OZNR1W7G2,9,1491511905983,"{""rt"": [4444, 519, 3179], ""trial_type"": ""graph"", ""infoCost"": 0.1, ""minTime"": 45, ""delays"": [3.18, 0, 0], ""actionTimes"": [4444, 8893, 12852], ""time_elapsed"": 544517, ""actions"": [""up"", ""up"", ""left""], ""trialIndex"": 4, ""score"": 36.6, ""trial_index"": 9, ""internal_node_id"": ""0.0-1.0-3.0"", ""clickTimes"": [1698, 3160, 11025, 11896], ""path"": [1, 3, 7, 12], ""trialID"": 6, ""clicks"": [""2"", ""3"", ""13"", ""12""], ""condition"": 0}"
A19IWME4DCIU1H:3PB5A5BD0V6LNX4GA7S39OZNR1W7G2,10,1491511957847,"{""rt"": [13371, 630, 3588], ""trial_type"": ""graph"", ""infoCost"": 0.1, ""minTime"": 45, ""delays"": [3.18, 0, 0], ""actionTimes"": [13371, 17947, 22299], ""time_elapsed"": 596381, ""actions"": [""up"", ""up"", ""right""], ""trialIndex"": 5, ""score"": 2, ""trial_index"": 10, ""internal_node_id"": ""0.0-1.0-4.0"", ""clickTimes"": [2083, 3399, 4549, 6353, 7281, 9248, 10276, 11016, 20609, 21354], ""path"": [1, 3, 7, 13], ""trialID"": 7, ""clicks"": [""4"", ""5"", ""9"", ""8"", ""2"", ""3"", ""7"", ""6"", ""13"", ""12""], ""condition"": 0}"
A19IWME4DCIU1H:3PB5A5BD0V6LNX4GA7S39OZNR1W7G2,11,1491512009499,"{""rt"": [21126, 447, 2234], ""trial_type"": ""graph"", ""infoCost"": 0.1, ""minTime"": 45, ""delays"": [3.18, 0, 0], ""actionTimes"": [21126, 25413, 28365], ""time_elapsed"": 648033, ""actions"": [""down"", ""down"", ""right""], ""trialIndex"": 6, ""score"": 8.8, ""trial_index"": 11, ""internal_node_id"": ""0.0-1.0-5.0"", ""clickTimes"": [1401, 2290, 3482, 4541, 7662, 9222, 11927, 13084, 14138, 15078, 15946, 18764], ""path"": [1, 5, 9, 17], ""trialID"": 0, ""clicks"": [""2"", ""6"", ""5"", ""9"", ""17"", ""16"", ""3"", ""7"", ""13"", ""12"", ""4"", ""10""], ""condition"": 0}"
A19IWME4DCIU1H:3PB5A5BD0V6LNX4GA7S39OZNR1W7G2,12,1491512063333,"{""rt"": [5215, 701, 3713], ""trial_type"": ""graph"", ""infoCost"": 0.1, ""minTime"": 45, ""delays"": [3.18, 0, 0], ""actionTimes"": [5216, 9936, 14439], ""time_elapsed"": 701867, ""actions"": [""left"", ""left"", ""up""], ""trialIndex"": 7, ""score"": 33.6, ""trial_index"": 12, ""internal_node_id"": ""0.0-1.0-6.0"", ""clickTimes"": [1222, 3022, 11918, 13532], ""path"": [1, 4, 8, 14], ""trialID"": 5, ""clicks"": [""4"", ""8"", ""14"", ""15""], ""condition"": 0}"
A19IWME4DCIU1H:3PB5A5BD0V6LNX4GA7S39OZNR1W7G2,13,1491512113887,"{""rt"": [12775, 430, 2382], ""trial_type"": ""graph"", ""infoCost"": 0.1, ""minTime"": 45, ""delays"": [3.18, 0, 0], ""actionTimes"": [12775, 17109, 20229], ""time_elapsed"": 752421, ""actions"": [""left"", ""left"", ""up""], ""trialIndex"": 8, ""score"": 15.6, ""trial_index"": 13, ""internal_node_id"": ""0.0-1.0-7.0"", ""clickTimes"": [2166, 3693, 5538, 6418], ""path"": [1, 4, 8, 14], ""trialID"": 4, ""clicks"": [""4"", ""8"", ""15"", ""14""], ""condition"": 0}"
A19IWME4DCIU1H:3PB5A5BD0V6LNX4GA7S39OZNR1W7G2,14,1491512134452,"{""rt"": 19539, ""trial_type"": ""button-response"", ""button_pressed"": 0, ""stimulus"": ""<h1 id=\""thiscompletesthehit\"">This completes the HIT</h1>\n\n<p>One or your trials has been randomly selected and we will pay you 5% of your profit on that trial as a bonus. You will be awarded a bonus of $0.10</p>"", ""internal_node_id"": ""0.0-2.0"", ""time_elapsed"": 772986, ""trial_index"": 14}"
A1EK8YNHZHTW1J:3GFK2QRXX9H2XFGX1JHOX77FUQKW5I,0,1492141740475,"{""rt"": 174464, ""trial_type"": ""instructions"", ""view_history"": ""[{\""page_index\"":0,\""viewing_time\"":46660},{\""page_index\"":1,\""viewing_time\"":2588},{\""page_index\"":0,\""viewing_time\"":3564},{\""page_index\"":1,\""viewing_time\"":49940},{\""page_index\"":2,\""viewing_time\"":34570},{\""page_index\"":3,\""viewing_time\"":37140}]"", ""internal_node_id"": ""0.0-0.0-0.0"", ""time_elapsed"": 174468, ""trial_index"": 0}"
A1EK8YNHZHTW1J:3GFK2QRXX9H2XFGX1JHOX77FUQKW5I,1,1492141801920,"{""rt"": 55362, ""trial_type"": ""survey-multi-choice"", ""responses"": ""[\""1\"",\""True\"",\""$0.50\"",\""As many or as few as I wish\"",\""My earnings for each round are equal to the value of one of the locations I visit (minus the cost of making observations), and I will actually be paid the earnings from one of the 8 rounds.\"",\""Whether I observed the rewards of relevant locations.\""]"", ""internal_node_id"": ""0.0-0.0-1.0"", ""time_elapsed"": 235914, ""questions"": ""[\""How many flights are there per round?\"",\""True or false: The hidden values will change each time I start a new round.\"",\""How much does it cost to observe each hidden value?\"",\""How many hidden values am I allowed to observe in each round?\"",\""Which statement is TRUE?\"",\""What does the feedback teach me?\""]"", ""correct"": [false, true, false, true, false, false], ""trial_index"": 1}"
A1EK8YNHZHTW1J:3GFK2QRXX9H2XFGX1JHOX77FUQKW5I,2,1492142057183,"{""rt"": 254258, ""trial_type"": ""instructions"", ""view_history"": ""[{\""page_index\"":0,\""viewing_time\"":87451},{\""page_index\"":1,\""viewing_time\"":98062},{\""page_index\"":2,\""viewing_time\"":43943},{\""page_index\"":3,\""viewing_time\"":24801}]"", ""internal_node_id"": ""0.0-0.1-0.1"", ""time_elapsed"": 491177, ""trial_index"": 2}"
A1EK8YNHZHTW1J:3GFK2QRXX9H2XFGX1JHOX77FUQKW5I,3,1492142136552,"{""rt"": 70724, ""trial_type"": ""survey-multi-choice"", ""responses"": ""[\""1\"",\""True\"",\""$0.10\"",\""As many or as few as I wish\"",\""My earnings for each round are equal to the value of one of the locations I visit (minus the cost of making observations), and I will actually be paid the earnings from one of the 8 rounds.\"",\""All of the above.\""]"", ""internal_node_id"": ""0.0-0.1-1.1"", ""time_elapsed"": 570545, ""questions"": ""[\""How many flights are there per round?\"",\""True or false: The hidden values will change each time I start a new round.\"",\""How much does it cost to observe each hidden value?\"",\""How many hidden values am I allowed to observe in each round?\"",\""Which statement is TRUE?\"",\""What does the feedback teach me?\""]"", ""correct"": [false, true, true, true, false, true], ""trial_index"": 3}"
A1EK8YNHZHTW1J:3GFK2QRXX9H2XFGX1JHOX77FUQKW5I,4,1492142142557,"{""rt"": 5004, ""trial_type"": ""instructions"", ""view_history"": ""[{\""page_index\"":0,\""viewing_time\"":1954},{\""page_index\"":1,\""viewing_time\"":930},{\""page_index\"":2,\""viewing_time\"":1014},{\""page_index\"":3,\""viewing_time\"":1105}]"", ""internal_node_id"": ""0.0-0.2-0.2"", ""time_elapsed"": 576551, ""trial_index"": 4}"
A1EK8YNHZHTW1J:3GFK2QRXX9H2XFGX1JHOX77FUQKW5I,5,1492142155613,"{""rt"": 10471, ""trial_type"": ""survey-multi-choice"", ""responses"": ""[\""1\"",\""True\"",\""$0.10\"",\""As many or as few as I wish\"",\""My earnings for each round are equal to the <i>sum</i> of the values of all locations I visit (minus the cost of making observations), and I will be paid the earnings from one of the 8 rounds.\"",\""All of the above.\""]"", ""internal_node_id"": ""0.0-0.2-1.2"", ""time_elapsed"": 589606, ""questions"": ""[\""How many flights are there per round?\"",\""True or false: The hidden values will change each time I start a new round.\"",\""How much does it cost to observe each hidden value?\"",\""How many hidden values am I allowed to observe in each round?\"",\""Which statement is TRUE?\"",\""What does the feedback teach me?\""]"", ""correct"": [false, true, true, true, true, true], ""trial_index"": 5}"
A1EK8YNHZHTW1J:3GFK2QRXX9H2XFGX1JHOX77FUQKW5I,6,1492142161837,"{""rt"": 5222, ""trial_type"": ""instructions"", ""view_history"": ""[{\""page_index\"":0,\""viewing_time\"":1797},{\""page_index\"":1,\""viewing_time\"":784},{\""page_index\"":2,\""viewing_time\"":1232},{\""page_index\"":3,\""viewing_time\"":1408}]"", ""internal_node_id"": ""0.0-0.3-0.3"", ""time_elapsed"": 595831, ""trial_index"": 6}"
A1EK8YNHZHTW1J:3GFK2QRXX9H2XFGX1JHOX77FUQKW5I,7,1492142176645,"{""rt"": 11095, ""trial_type"": ""survey-multi-choice"", ""responses"": ""[\""1\"",\""True\"",\""$0.10\"",\""As many or as few as I wish\"",\""My earnings for each round are equal to the value of one of the locations I visit (minus the cost of making observations), but these earnings aren't real money.\"",\""All of the above.\""]"", ""internal_node_id"": ""0.0-0.3-1.3"", ""time_elapsed"": 610638, ""questions"": ""[\""How many flights are there per round?\"",\""True or false: The hidden values will change each time I start a new round.\"",\""How much does it cost to observe each hidden value?\"",\""How many hidden values am I allowed to observe in each round?\"",\""Which statement is TRUE?\"",\""What does the feedback teach me?\""]"", ""correct"": [false, true, true, true, false, true], ""trial_index"": 7}"
A1EK8YNHZHTW1J:3GFK2QRXX9H2XFGX1JHOX77FUQKW5I,8,1492142182997,"{""rt"": 5350, ""trial_type"": ""instructions"", ""view_history"": ""[{\""page_index\"":0,\""viewing_time\"":2012},{\""page_index\"":1,\""viewing_time\"":1512},{\""page_index\"":2,\""viewing_time\"":1193},{\""page_index\"":3,\""viewing_time\"":632}]"", ""internal_node_id"": ""0.0-0.4-0.4"", ""time_elapsed"": 616990, ""trial_index"": 8}"
A1EK8YNHZHTW1J:3GFK2QRXX9H2XFGX1JHOX77FUQKW5I,9,1492142193068,"{""rt"": 7858, ""trial_type"": ""survey-multi-choice"", ""responses"": ""[\""1\"",\""True\"",\""$0.10\"",\""As many or as few as I wish\"",\""My earnings for each round are equal to the <i>sum</i> of the values of all locations I visit (minus the cost of making observations), but these earnings aren't real money.\"",\""All of the above.\""]"", ""internal_node_id"": ""0.0-0.4-1.4"", ""time_elapsed"": 627061, ""questions"": ""[\""How many flights are there per round?\"",\""True or false: The hidden values will change each time I start a new round.\"",\""How much does it cost to observe each hidden value?\"",\""How many hidden values am I allowed to observe in each round?\"",\""Which statement is TRUE?\"",\""What does the feedback teach me?\""]"", ""correct"": [false, true, true, true, false, true], ""trial_index"": 9}"
A1EK8YNHZHTW1J:3GFK2QRXX9H2XFGX1JHOX77FUQKW5I,10,1492142258443,"{""rt"": 64374, ""trial_type"": ""instructions"", ""view_history"": ""[{\""page_index\"":0,\""viewing_time\"":61013},{\""page_index\"":1,\""viewing_time\"":1496},{\""page_index\"":2,\""viewing_time\"":976},{\""page_index\"":3,\""viewing_time\"":888}]"", ""internal_node_id"": ""0.0-0.5-0.5"", ""time_elapsed"": 692437, ""trial_index"": 10}"
A1EK8YNHZHTW1J:3GFK2QRXX9H2XFGX1JHOX77FUQKW5I,11,1492142360900,"{""rt"": 99894, ""trial_type"": ""survey-multi-choice"", ""responses"": ""[\""1\"",\""True\"",\""$0.10\"",\""As many or as few as I wish\"",\""My earnings for each round are equal to the value of one of the locations I visit (minus the cost of making observations), and I will actually be paid the earnings from one of the 8 rounds.\"",\""Whether I observed the rewards of relevant locations.\""]"", ""internal_node_id"": ""0.0-0.5-1.5"", ""time_elapsed"": 794894, ""questions"": ""[\""How many flights are there per round?\"",\""True or false: The hidden values will change each time I start a new round.\"",\""How much does it cost to observe each hidden value?\"",\""How many hidden values am I allowed to observe in each round?\"",\""Which statement is TRUE?\"",\""What does the feedback teach me?\""]"", ""correct"": [false, true, true, true, false, false], ""trial_index"": 11}"
A1EK8YNHZHTW1J:3GFK2QRXX9H2XFGX1JHOX77FUQKW5I,12,1492142365283,"{""rt"": 3382, ""trial_type"": ""instructions"", ""view_history"": ""[{\""page_index\"":0,\""viewing_time\"":1277},{\""page_index\"":1,\""viewing_time\"":744},{\""page_index\"":2,\""viewing_time\"":801},{\""page_index\"":3,\""viewing_time\"":559}]"", ""internal_node_id"": ""0.0-0.6-0.6"", ""time_elapsed"": 799277, ""trial_index"": 12}"
A1EK8YNHZHTW1J:3GFK2QRXX9H2XFGX1JHOX77FUQKW5I,13,1492142376099,"{""rt"": 7657, ""trial_type"": ""survey-multi-choice"", ""responses"": ""[\""1\"",\""True\"",\""$0.10\"",\""As many or as few as I wish\"",\""My earnings for each round are equal to the value of one of the locations I visit (minus the cost of making observations), and I will actually be paid the earnings from one of the 8 rounds.\"",\""Whether I chose the move that was best according to the information I had.\""]"", ""internal_node_id"": ""0.0-0.6-1.6"", ""time_elapsed"": 810093, ""questions"": ""[\""How many flights are there per round?\"",\""True or false: The hidden values will change each time I start a new round.\"",\""How much does it cost to observe each hidden value?\"",\""How many hidden values am I allowed to observe in each round?\"",\""Which statement is TRUE?\"",\""What does the feedback teach me?\""]"", ""correct"": [false, true, true, true, false, false], ""trial_index"": 13}"
A1EK8YNHZHTW1J:3GFK2QRXX9H2XFGX1JHOX77FUQKW5I,14,1492142382642,"{""rt"": 5542, ""trial_type"": ""instructions"", ""view_history"": ""[{\""page_index\"":0,\""viewing_time\"":1605},{\""page_index\"":1,\""viewing_time\"":1320},{\""page_index\"":2,\""viewing_time\"":1792},{\""page_index\"":3,\""viewing_time\"":824}]"", ""internal_node_id"": ""0.0-0.7-0.7"", ""time_elapsed"": 816636, ""trial_index"": 14}"
A1EK8YNHZHTW1J:3GFK2QRXX9H2XFGX1JHOX77FUQKW5I,15,1492142395580,"{""rt"": 7659, ""trial_type"": ""survey-multi-choice"", ""responses"": ""[\""1\"",\""True\"",\""$0.10\"",\""As many or as few as I wish\"",\""My earnings for each round are equal to the <i>sum</i> of the values of all locations I visit (minus the cost of making observations), and I will be paid the earnings from one of the 8 rounds.\"",\""Whether I observed the rewards of relevant locations.\""]"", ""internal_node_id"": ""0.0-0.7-1.7"", ""time_elapsed"": 829573, ""questions"": ""[\""How many flights are there per round?\"",\""True or false: The hidden values will change each time I start a new round.\"",\""How much does it cost to observe each hidden value?\"",\""How many hidden values am I allowed to observe in each round?\"",\""Which statement is TRUE?\"",\""What does the feedback teach me?\""]"", ""correct"": [false, true, true, true, true, false], ""trial_index"": 15}"
A1EK8YNHZHTW1J:3GFK2QRXX9H2XFGX1JHOX77FUQKW5I,16,1492142399980,"{""rt"": 3398, ""trial_type"": ""instructions"", ""view_history"": ""[{\""page_index\"":0,\""viewing_time\"":1395},{\""page_index\"":1,\""viewing_time\"":720},{\""page_index\"":2,\""viewing_time\"":672},{\""page_index\"":3,\""viewing_time\"":610}]"", ""internal_node_id"": ""0.0-0.8-0.8"", ""time_elapsed"": 833974, ""trial_index"": 16}"
A1EK8YNHZHTW1J:3GFK2QRXX9H2XFGX1JHOX77FUQKW5I,17,1492142408459,"{""rt"": 6432, ""trial_type"": ""survey-multi-choice"", ""responses"": ""[\""1\"",\""True\"",\""$0.10\"",\""As many or as few as I wish\"",\""My earnings for each round are equal to the <i>sum</i> of the values of all locations I visit (minus the cost of making observations), and I will be paid the earnings from one of the 8 rounds.\"",\""Whether I chose the move that was best according to the information I had.\""]"", ""internal_node_id"": ""0.0-0.8-1.8"", ""time_elapsed"": 842452, ""questions"": ""[\""How many flights are there per round?\"",\""True or false: The hidden values will change each time I start a new round.\"",\""How much does it cost to observe each hidden value?\"",\""How many hidden values am I allowed to observe in each round?\"",\""Which statement is TRUE?\"",\""What does the feedback teach me?\""]"", ""correct"": [false, true, true, true, true, false], ""trial_index"": 17}"
A1EK8YNHZHTW1J:3GFK2QRXX9H2XFGX1JHOX77FUQKW5I,18,1492142413738,"{""rt"": 4278, ""trial_type"": ""instructions"", ""view_history"": ""[{\""page_index\"":0,\""viewing_time\"":1653},{\""page_index\"":1,\""viewing_time\"":888},{\""page_index\"":2,\""viewing_time\"":856},{\""page_index\"":3,\""viewing_time\"":880}]"", ""internal_node_id"": ""0.0-0.9-0.9"", ""time_elapsed"": 847732, ""trial_index"": 18}"
A1EK8YNHZHTW1J:3GFK2QRXX9H2XFGX1JHOX77FUQKW5I,19,1492142426239,"{""rt"": 9971, ""trial_type"": ""survey-multi-choice"", ""responses"": ""[\""1\"",\""True\"",\""$0.10\"",\""As many or as few as I wish\"",\""My earnings for each round are equal to the value of one of the locations I visit (minus the cost of making observations), but these earnings aren't real money.\"",\""Whether I observed the rewards of relevant locations.\""]"", ""internal_node_id"": ""0.0-0.9-1.9"", ""time_elapsed"": 860233, ""questions"": ""[\""How many flights are there per round?\"",\""True or false: The hidden values will change each time I start a new round.\"",\""How much does it cost to observe each hidden value?\"",\""How many hidden values am I allowed to observe in each round?\"",\""Which statement is TRUE?\"",\""What does the feedback teach me?\""]"", ""correct"": [false, true, true, true, false, false], ""trial_index"": 19}"
A1EK8YNHZHTW1J:3GFK2QRXX9H2XFGX1JHOX77FUQKW5I,20,1492142431195,"{""rt"": 3950, ""trial_type"": ""instructions"", ""view_history"": ""[{\""page_index\"":0,\""viewing_time\"":1645},{\""page_index\"":1,\""viewing_time\"":879},{\""page_index\"":2,\""viewing_time\"":809},{\""page_index\"":3,\""viewing_time\"":616}]"", ""internal_node_id"": ""0.0-0.10-0.10"", ""time_elapsed"": 865189, ""trial_index"": 20}"
A1EK8YNHZHTW1J:3GFK2QRXX9H2XFGX1JHOX77FUQKW5I,21,1492142447270,"{""rt"": 10656, ""trial_type"": ""survey-multi-choice"", ""responses"": ""[\""1\"",\""True\"",\""$0.10\"",\""As many or as few as I wish\"",\""My earnings for each round are equal to the <i>sum</i> of the values of all locations I visit (minus the cost of making observations), but these earnings aren't real money.\"",\""Whether I observed the rewards of relevant locations.\""]"", ""internal_node_id"": ""0.0-0.10-1.10"", ""time_elapsed"": 881264, ""questions"": ""[\""How many flights are there per round?\"",\""True or false: The hidden values will change each time I start a new round.\"",\""How much does it cost to observe each hidden value?\"",\""How many hidden values am I allowed to observe in each round?\"",\""Which statement is TRUE?\"",\""What does the feedback teach me?\""]"", ""correct"": [false, true, true, true, false, false], ""trial_index"": 21}"
A1EK8YNHZHTW1J:3GFK2QRXX9H2XFGX1JHOX77FUQKW5I,22,1492142452653,"{""rt"": 4380, ""trial_type"": ""instructions"", ""view_history"": ""[{\""page_index\"":0,\""viewing_time\"":2089},{\""page_index\"":1,\""viewing_time\"":873},{\""page_index\"":2,\""viewing_time\"":832},{\""page_index\"":3,\""viewing_time\"":585}]"", ""internal_node_id"": ""0.0-0.11-0.11"", ""time_elapsed"": 886646, ""trial_index"": 22}"
A1EK8YNHZHTW1J:3GFK2QRXX9H2XFGX1JHOX77FUQKW5I,23,1492142463204,"{""rt"": 7369, ""trial_type"": ""survey-multi-choice"", ""responses"": ""[\""1\"",\""True\"",\""$0.10\"",\""As many or as few as I wish\"",\""My earnings for each round are equal to the <i>sum</i> of the values of all locations I visit (minus the cost of making observations), but these earnings aren't real money.\"",\""Whether I chose the move that was best according to the information I had.\""]"", ""internal_node_id"": ""0.0-0.11-1.11"", ""time_elapsed"": 897198, ""questions"": ""[\""How many flights are there per round?\"",\""True or false: The hidden values will change each time I start a new round.\"",\""How much does it cost to observe each hidden value?\"",\""How many hidden values am I allowed to observe in each round?\"",\""Which statement is TRUE?\"",\""What does the feedback teach me?\""]"", ""correct"": [false, true, true, true, false, false], ""trial_index"": 23}"
A1EK8YNHZHTW1J:3GFK2QRXX9H2XFGX1JHOX77FUQKW5I,24,1492142469587,"{""rt"": 5380, ""trial_type"": ""instructions"", ""view_history"": ""[{\""page_index\"":0,\""viewing_time\"":1211},{\""page_index\"":1,\""viewing_time\"":920},{\""page_index\"":2,\""viewing_time\"":2153},{\""page_index\"":3,\""viewing_time\"":1095}]"", ""internal_node_id"": ""0.0-0.12-0.12"", ""time_elapsed"": 903580, ""trial_index"": 24}"
A1EK8YNHZHTW1J:3GFK2QRXX9H2XFGX1JHOX77FUQKW5I,25,1492142484963,"{""rt"": 13214, ""trial_type"": ""survey-multi-choice"", ""responses"": ""[\""1\"",\""True\"",\""$0.10\"",\""At most 15\"",\""My earnings for each round are equal to the value of one of the locations I visit (minus the cost of making observations), and I will actually be paid the earnings from one of the 8 rounds.\"",\""All of the above.\""]"", ""internal_node_id"": ""0.0-0.12-1.12"", ""time_elapsed"": 918956, ""questions"": ""[\""How many flights are there per round?\"",\""True or false: The hidden values will change each time I start a new round.\"",\""How much does it cost to observe each hidden value?\"",\""How many hidden values am I allowed to observe in each round?\"",\""Which statement is TRUE?\"",\""What does the feedback teach me?\""]"", ""correct"": [false, true, true, false, false, true], ""trial_index"": 25}"
A1EK8YNHZHTW1J:3GFK2QRXX9H2XFGX1JHOX77FUQKW5I,26,1492142490107,"{""rt"": 4143, ""trial_type"": ""instructions"", ""view_history"": ""[{\""page_index\"":0,\""viewing_time\"":1870},{\""page_index\"":1,\""viewing_time\"":751},{\""page_index\"":2,\""viewing_time\"":896},{\""page_index\"":3,\""viewing_time\"":625}]"", ""internal_node_id"": ""0.0-0.13-0.13"", ""time_elapsed"": 924101, ""trial_index"": 26}"
A1EK8YNHZHTW1J:3GFK2QRXX9H2XFGX1JHOX77FUQKW5I,27,1492142500246,"{""rt"": 8119, ""trial_type"": ""survey-multi-choice"", ""responses"": ""[\""1\"",\""True\"",\""$0.10\"",\""At most 15\"",\""My earnings for each round are equal to the value of one of the locations I visit (minus the cost of making observations), and I will actually be paid the earnings from one of the 8 rounds.\"",\""All of the above.\""]"", ""internal_node_id"": ""0.0-0.13-1.13"", ""time_elapsed"": 934240, ""questions"": ""[\""How many flights are there per round?\"",\""True or false: The hidden values will change each time I start a new round.\"",\""How much does it cost to observe each hidden value?\"",\""How many hidden values am I allowed to observe in each round?\"",\""Which statement is TRUE?\"",\""What does the feedback teach me?\""]"", ""correct"": [false, true, true, false, false, true], ""trial_index"": 27}"
A1EK8YNHZHTW1J:3GFK2QRXX9H2XFGX1JHOX77FUQKW5I,28,1492142509411,"{""rt"": 8162, ""trial_type"": ""instructions"", ""view_history"": ""[{\""page_index\"":0,\""viewing_time\"":5233},{\""page_index\"":1,\""viewing_time\"":768},{\""page_index\"":2,\""viewing_time\"":1386},{\""page_index\"":3,\""viewing_time\"":774}]"", ""internal_node_id"": ""0.0-0.14-0.14"", ""time_elapsed"": 943404, ""trial_index"": 28}"
