,correct,questions,responses,rt,time_elapsed,trial_type,worker_id,assignment_id,pid
1,"[False, True, True, True, False, False]","[""How many flights are there per round?"",""True or false: The hidden values will change each time I start a new round."",""How much does it cost to observe each hidden value?"",""How many hidden values am I allowed to observe in each round?"",""Which statement is TRUE?"",""True of false: The duration of the delay tells me how much more money I could have earned by planning and deciding better.""]","[""1"",""True"",""$0.10"",""As many or as few as I wish"",""My earnings for each round are equal to the value of one of the locations I visit (minus the cost of making observations), but these earnings aren't real money."",""False""]",54583,257576,survey-multi-choice,A110JBKYAC0WAW,37C0GNLMHF3Z7DGKP7M3XPWUJYWD6Z,0
3,"[True, True, True, True, True, False]","[""How many flights are there per round?"",""True or false: The hidden values will change each time I start a new round."",""How much does it cost to observe each hidden value?"",""How many hidden values am I allowed to observe in each round?"",""Which statement is TRUE?"",""True of false: The duration of the delay tells me how much more money I could have earned by planning and deciding better.""]","[""3"",""True"",""$0.10"",""As many or as few as I wish"",""My earnings for each round are equal to the <i>sum</i> of the values of all locations I visit (minus the cost of making observations), and I will be paid the earnings from one of the 8 rounds."",""False""]",42795,388656,survey-multi-choice,A110JBKYAC0WAW,37C0GNLMHF3Z7DGKP7M3XPWUJYWD6Z,0
5,"[False, True, True, True, True, True]","[""How many flights are there per round?"",""True or false: The hidden values will change each time I start a new round."",""How much does it cost to observe each hidden value?"",""How many hidden values am I allowed to observe in each round?"",""Which statement is TRUE?"",""True of false: The duration of the delay tells me how much more money I could have earned by planning and deciding better.""]","[""1"",""True"",""$0.10"",""As many or as few as I wish"",""My earnings for each round are equal to the <i>sum</i> of the values of all locations I visit (minus the cost of making observations), and I will be paid the earnings from one of the 8 rounds."",""True""]",26820,438800,survey-multi-choice,A110JBKYAC0WAW,37C0GNLMHF3Z7DGKP7M3XPWUJYWD6Z,0
7,"[True, True, True, True, True, False]","[""How many flights are there per round?"",""True or false: The hidden values will change each time I start a new round."",""How much does it cost to observe each hidden value?"",""How many hidden values am I allowed to observe in each round?"",""Which statement is TRUE?"",""True of false: The duration of the delay tells me how much more money I could have earned by planning and deciding better.""]","[""3"",""True"",""$0.10"",""As many or as few as I wish"",""My earnings for each round are equal to the <i>sum</i> of the values of all locations I visit (minus the cost of making observations), and I will be paid the earnings from one of the 8 rounds."",""False""]",18239,488503,survey-multi-choice,A110JBKYAC0WAW,37C0GNLMHF3Z7DGKP7M3XPWUJYWD6Z,0
9,"[False, True, True, True, True, True]","[""How many flights are there per round?"",""True or false: The hidden values will change each time I start a new round."",""How much does it cost to observe each hidden value?"",""How many hidden values am I allowed to observe in each round?"",""Which statement is TRUE?"",""True of false: The duration of the delay tells me how much more money I could have earned by planning and deciding better.""]","[""1"",""True"",""$0.10"",""As many or as few as I wish"",""My earnings for each round are equal to the <i>sum</i> of the values of all locations I visit (minus the cost of making observations), and I will be paid the earnings from one of the 8 rounds."",""True""]",23311,519959,survey-multi-choice,A110JBKYAC0WAW,37C0GNLMHF3Z7DGKP7M3XPWUJYWD6Z,0
11,"[True, True, True, True, True, True]","[""How many flights are there per round?"",""True or false: The hidden values will change each time I start a new round."",""How much does it cost to observe each hidden value?"",""How many hidden values am I allowed to observe in each round?"",""Which statement is TRUE?"",""True of false: The duration of the delay tells me how much more money I could have earned by planning and deciding better.""]","[""3"",""True"",""$0.10"",""As many or as few as I wish"",""My earnings for each round are equal to the <i>sum</i> of the values of all locations I visit (minus the cost of making observations), and I will be paid the earnings from one of the 8 rounds."",""True""]",16060,546248,survey-multi-choice,A110JBKYAC0WAW,37C0GNLMHF3Z7DGKP7M3XPWUJYWD6Z,0
22,"[False, True, True, True, True, True]","[""How many flights are there per round?"",""True or false: The hidden values will change each time I start a new round."",""How much does it cost to observe each hidden value?"",""How many hidden values am I allowed to observe in each round?"",""Which statement is TRUE?"",""What does the feedback teach me?""]","[""2"",""True"",""$0.10"",""As many or as few as I wish"",""My earnings for each round are equal to the <i>sum</i> of the values of all locations I visit (minus the cost of making observations), and I will be paid the earnings from one of the 8 rounds."",""All of the above.""]",37589,173881,survey-multi-choice,A12R2U6TBB3OOG,3KWTYT08703MML4YX5AMOWQZWCN5LR,1
24,"[False, True, True, True, True, False]","[""How many flights are there per round?"",""True or false: The hidden values will change each time I start a new round."",""How much does it cost to observe each hidden value?"",""How many hidden values am I allowed to observe in each round?"",""Which statement is TRUE?"",""What does the feedback teach me?""]","[""2"",""True"",""$0.10"",""As many or as few as I wish"",""My earnings for each round are equal to the <i>sum</i> of the values of all locations I visit (minus the cost of making observations), and I will be paid the earnings from one of the 8 rounds."",""Whether I observed the rewards of relevant locations.""]",18932,202631,survey-multi-choice,A12R2U6TBB3OOG,3KWTYT08703MML4YX5AMOWQZWCN5LR,1
26,"[False, True, True, True, True, False]","[""How many flights are there per round?"",""True or false: The hidden values will change each time I start a new round."",""How much does it cost to observe each hidden value?"",""How many hidden values am I allowed to observe in each round?"",""Which statement is TRUE?"",""What does the feedback teach me?""]","[""2"",""True"",""$0.10"",""As many or as few as I wish"",""My earnings for each round are equal to the <i>sum</i> of the values of all locations I visit (minus the cost of making observations), and I will be paid the earnings from one of the 8 rounds."",""The duration of the delay tells me how much more money I could have earned by planning and deciding better.""]",8571,218061,survey-multi-choice,A12R2U6TBB3OOG,3KWTYT08703MML4YX5AMOWQZWCN5LR,1
28,"[False, True, True, True, True, True]","[""How many flights are there per round?"",""True or false: The hidden values will change each time I start a new round."",""How much does it cost to observe each hidden value?"",""How many hidden values am I allowed to observe in each round?"",""Which statement is TRUE?"",""What does the feedback teach me?""]","[""4"",""True"",""$0.10"",""As many or as few as I wish"",""My earnings for each round are equal to the <i>sum</i> of the values of all locations I visit (minus the cost of making observations), and I will be paid the earnings from one of the 8 rounds."",""All of the above.""]",8052,242304,survey-multi-choice,A12R2U6TBB3OOG,3KWTYT08703MML4YX5AMOWQZWCN5LR,1
30,"[True, True, True, True, True, True]","[""How many flights are there per round?"",""True or false: The hidden values will change each time I start a new round."",""How much does it cost to observe each hidden value?"",""How many hidden values am I allowed to observe in each round?"",""Which statement is TRUE?"",""What does the feedback teach me?""]","[""3"",""True"",""$0.10"",""As many or as few as I wish"",""My earnings for each round are equal to the <i>sum</i> of the values of all locations I visit (minus the cost of making observations), and I will be paid the earnings from one of the 8 rounds."",""All of the above.""]",6923,264188,survey-multi-choice,A12R2U6TBB3OOG,3KWTYT08703MML4YX5AMOWQZWCN5LR,1
41,"[False, True, True, True, True, True]","[""How many flights are there per round?"",""True or false: The hidden values will change each time I start a new round."",""How much does it cost to observe each hidden value?"",""How many hidden values am I allowed to observe in each round?"",""Which statement is TRUE?"",""What does the feedback teach me?""]","[""2"",""True"",""$0.10"",""As many or as few as I wish"",""My earnings for each round are equal to the <i>sum</i> of the values of all locations I visit (minus the cost of making observations), and I will be paid the earnings from one of the 8 rounds."",""All of the above.""]",62198,321721,survey-multi-choice,A16ANYLVNPKCVG,3URFVVM165INCPBHD7934NTDA2NZUL,2
43,"[True, True, True, True, True, True]","[""How many flights are there per round?"",""True or false: The hidden values will change each time I start a new round."",""How much does it cost to observe each hidden value?"",""How many hidden values am I allowed to observe in each round?"",""Which statement is TRUE?"",""What does the feedback teach me?""]","[""3"",""True"",""$0.10"",""As many or as few as I wish"",""My earnings for each round are equal to the <i>sum</i> of the values of all locations I visit (minus the cost of making observations), and I will be paid the earnings from one of the 8 rounds."",""All of the above.""]",48526,429277,survey-multi-choice,A16ANYLVNPKCVG,3URFVVM165INCPBHD7934NTDA2NZUL,2
54,"[False, True, False, True, True, True]","[""How many flights are there per round?"",""True or false: The hidden values will change each time I start a new round."",""How much does it cost to observe each hidden value?"",""How many hidden values am I allowed to observe in each round?"",""Which statement is TRUE?"",""What does the feedback teach me?""]","[""1"",""True"",""$0.25"",""As many or as few as I wish"",""My earnings for each round are equal to the <i>sum</i> of the values of all locations I visit (minus the cost of making observations), and I will be paid the earnings from one of the 8 rounds."",""All of the above.""]",133115,292204,survey-multi-choice,A19134KP9PBNXT,3HL8HNGX451JNGWEEKK55ZQHLCKF9N,3
56,"[False, True, False, True, True, True]","[""How many flights are there per round?"",""True or false: The hidden values will change each time I start a new round."",""How much does it cost to observe each hidden value?"",""How many hidden values am I allowed to observe in each round?"",""Which statement is TRUE?"",""What does the feedback teach me?""]","[""2"",""True"",""$0.00"",""As many or as few as I wish"",""My earnings for each round are equal to the <i>sum</i> of the values of all locations I visit (minus the cost of making observations), and I will be paid the earnings from one of the 8 rounds."",""All of the above.""]",39862,393227,survey-multi-choice,A19134KP9PBNXT,3HL8HNGX451JNGWEEKK55ZQHLCKF9N,3
58,"[False, True, False, True, False, True]","[""How many flights are there per round?"",""True or false: The hidden values will change each time I start a new round."",""How much does it cost to observe each hidden value?"",""How many hidden values am I allowed to observe in each round?"",""Which statement is TRUE?"",""What does the feedback teach me?""]","[""2"",""True"",""$0.00"",""As many or as few as I wish"",""My earnings for each round are equal to the value of one of the locations I visit (minus the cost of making observations), and I will actually be paid the earnings from one of the 8 rounds."",""All of the above.""]",47594,505259,survey-multi-choice,A19134KP9PBNXT,3HL8HNGX451JNGWEEKK55ZQHLCKF9N,3
60,"[False, True, True, True, False, True]","[""How many flights are there per round?"",""True or false: The hidden values will change each time I start a new round."",""How much does it cost to observe each hidden value?"",""How many hidden values am I allowed to observe in each round?"",""Which statement is TRUE?"",""What does the feedback teach me?""]","[""2"",""True"",""$0.10"",""As many or as few as I wish"",""My earnings for each round are equal to the value of one of the locations I visit (minus the cost of making observations), and I will actually be paid the earnings from one of the 8 rounds."",""All of the above.""]",17459,547619,survey-multi-choice,A19134KP9PBNXT,3HL8HNGX451JNGWEEKK55ZQHLCKF9N,3
62,"[False, True, True, True, True, True]","[""How many flights are there per round?"",""True or false: The hidden values will change each time I start a new round."",""How much does it cost to observe each hidden value?"",""How many hidden values am I allowed to observe in each round?"",""Which statement is TRUE?"",""What does the feedback teach me?""]","[""2"",""True"",""$0.10"",""As many or as few as I wish"",""My earnings for each round are equal to the <i>sum</i> of the values of all locations I visit (minus the cost of making observations), and I will be paid the earnings from one of the 8 rounds."",""All of the above.""]",19500,580475,survey-multi-choice,A19134KP9PBNXT,3HL8HNGX451JNGWEEKK55ZQHLCKF9N,3
64,"[False, True, True, True, False, True]","[""How many flights are there per round?"",""True or false: The hidden values will change each time I start a new round."",""How much does it cost to observe each hidden value?"",""How many hidden values am I allowed to observe in each round?"",""Which statement is TRUE?"",""What does the feedback teach me?""]","[""2"",""True"",""$0.10"",""As many or as few as I wish"",""My earnings for each round are equal to the value of one of the locations I visit (minus the cost of making observations), and I will actually be paid the earnings from one of the 8 rounds."",""All of the above.""]",47942,688218,survey-multi-choice,A19134KP9PBNXT,3HL8HNGX451JNGWEEKK55ZQHLCKF9N,3
66,"[False, True, True, True, False, True]","[""How many flights are there per round?"",""True or false: The hidden values will change each time I start a new round."",""How much does it cost to observe each hidden value?"",""How many hidden values am I allowed to observe in each round?"",""Which statement is TRUE?"",""What does the feedback teach me?""]","[""2"",""True"",""$0.10"",""As many or as few as I wish"",""My earnings for each round are equal to the value of one of the locations I visit (minus the cost of making observations), and I will actually be paid the earnings from one of the 8 rounds."",""All of the above.""]",18316,789027,survey-multi-choice,A19134KP9PBNXT,3HL8HNGX451JNGWEEKK55ZQHLCKF9N,3
68,"[False, True, True, True, False, False]","[""How many flights are there per round?"",""True or false: The hidden values will change each time I start a new round."",""How much does it cost to observe each hidden value?"",""How many hidden values am I allowed to observe in each round?"",""Which statement is TRUE?"",""What does the feedback teach me?""]","[""2"",""True"",""$0.10"",""As many or as few as I wish"",""My earnings for each round are equal to the value of one of the locations I visit (minus the cost of making observations), and I will actually be paid the earnings from one of the 8 rounds."",""Whether I chose the move that was best according to the information I had.""]",19453,816363,survey-multi-choice,A19134KP9PBNXT,3HL8HNGX451JNGWEEKK55ZQHLCKF9N,3
70,"[False, True, True, True, False, False]","[""How many flights are there per round?"",""True or false: The hidden values will change each time I start a new round."",""How much does it cost to observe each hidden value?"",""How many hidden values am I allowed to observe in each round?"",""Which statement is TRUE?"",""What does the feedback teach me?""]","[""2"",""True"",""$0.10"",""As many or as few as I wish"",""My earnings for each round are equal to the value of one of the locations I visit (minus the cost of making observations), and I will actually be paid the earnings from one of the 8 rounds."",""Whether I observed the rewards of relevant locations.""]",39464,902844,survey-multi-choice,A19134KP9PBNXT,3HL8HNGX451JNGWEEKK55ZQHLCKF9N,3
72,"[False, True, True, True, True, True]","[""How many flights are there per round?"",""True or false: The hidden values will change each time I start a new round."",""How much does it cost to observe each hidden value?"",""How many hidden values am I allowed to observe in each round?"",""Which statement is TRUE?"",""What does the feedback teach me?""]","[""1"",""True"",""$0.10"",""As many or as few as I wish"",""My earnings for each round are equal to the <i>sum</i> of the values of all locations I visit (minus the cost of making observations), and I will be paid the earnings from one of the 8 rounds."",""All of the above.""]",24275,1005396,survey-multi-choice,A19134KP9PBNXT,3HL8HNGX451JNGWEEKK55ZQHLCKF9N,3
74,"[False, True, True, True, False, True]","[""How many flights are there per round?"",""True or false: The hidden values will change each time I start a new round."",""How much does it cost to observe each hidden value?"",""How many hidden values am I allowed to observe in each round?"",""Which statement is TRUE?"",""What does the feedback teach me?""]","[""1"",""True"",""$0.10"",""As many or as few as I wish"",""My earnings for each round are equal to the value of one of the locations I visit (minus the cost of making observations), and I will actually be paid the earnings from one of the 8 rounds."",""All of the above.""]",12045,1025052,survey-multi-choice,A19134KP9PBNXT,3HL8HNGX451JNGWEEKK55ZQHLCKF9N,3
76,"[True, True, True, True, False, True]","[""How many flights are there per round?"",""True or false: The hidden values will change each time I start a new round."",""How much does it cost to observe each hidden value?"",""How many hidden values am I allowed to observe in each round?"",""Which statement is TRUE?"",""What does the feedback teach me?""]","[""3"",""True"",""$0.10"",""As many or as few as I wish"",""My earnings for each round are equal to the value of one of the locations I visit (minus the cost of making observations), and I will actually be paid the earnings from one of the 8 rounds."",""All of the above.""]",10679,1042324,survey-multi-choice,A19134KP9PBNXT,3HL8HNGX451JNGWEEKK55ZQHLCKF9N,3
78,"[False, True, True, True, True, True]","[""How many flights are there per round?"",""True or false: The hidden values will change each time I start a new round."",""How much does it cost to observe each hidden value?"",""How many hidden values am I allowed to observe in each round?"",""Which statement is TRUE?"",""What does the feedback teach me?""]","[""1"",""True"",""$0.10"",""As many or as few as I wish"",""My earnings for each round are equal to the <i>sum</i> of the values of all locations I visit (minus the cost of making observations), and I will be paid the earnings from one of the 8 rounds."",""All of the above.""]",26278,1076466,survey-multi-choice,A19134KP9PBNXT,3HL8HNGX451JNGWEEKK55ZQHLCKF9N,3
80,"[True, True, True, True, True, True]","[""How many flights are there per round?"",""True or false: The hidden values will change each time I start a new round."",""How much does it cost to observe each hidden value?"",""How many hidden values am I allowed to observe in each round?"",""Which statement is TRUE?"",""What does the feedback teach me?""]","[""3"",""True"",""$0.10"",""As many or as few as I wish"",""My earnings for each round are equal to the <i>sum</i> of the values of all locations I visit (minus the cost of making observations), and I will be paid the earnings from one of the 8 rounds."",""All of the above.""]",8536,1121376,survey-multi-choice,A19134KP9PBNXT,3HL8HNGX451JNGWEEKK55ZQHLCKF9N,3
91,"[False, True, False, False, True]","[""How many flights are there per round?"",""True or false: The hidden values will change each time I start a new round."",""How much does it cost to observe each hidden value?"",""How many hidden values am I allowed to observe in each round?"",""Which statement is TRUE?""]","[""1"",""True"",""$0.00"",""At most 15"",""My earnings for each round are equal to the <i>sum</i> of the values of all locations I visit (minus the cost of making observations), and I will be paid the earnings from one of the 8 rounds.""]",43870,123934,survey-multi-choice,A19IWME4DCIU1H,3PB5A5BD0V6LNX4GA7S39OZNR1W7G2,4
93,"[False, True, False, True, True]","[""How many flights are there per round?"",""True or false: The hidden values will change each time I start a new round."",""How much does it cost to observe each hidden value?"",""How many hidden values am I allowed to observe in each round?"",""Which statement is TRUE?""]","[""1"",""True"",""$0.00"",""As many or as few as I wish"",""My earnings for each round are equal to the <i>sum</i> of the values of all locations I visit (minus the cost of making observations), and I will be paid the earnings from one of the 8 rounds.""]",17991,193202,survey-multi-choice,A19IWME4DCIU1H,3PB5A5BD0V6LNX4GA7S39OZNR1W7G2,4
95,"[True, True, True, True, True]","[""How many flights are there per round?"",""True or false: The hidden values will change each time I start a new round."",""How much does it cost to observe each hidden value?"",""How many hidden values am I allowed to observe in each round?"",""Which statement is TRUE?""]","[""3"",""True"",""$0.10"",""As many or as few as I wish"",""My earnings for each round are equal to the <i>sum</i> of the values of all locations I visit (minus the cost of making observations), and I will be paid the earnings from one of the 8 rounds.""]",87153,337984,survey-multi-choice,A19IWME4DCIU1H,3PB5A5BD0V6LNX4GA7S39OZNR1W7G2,4
106,"[False, True, False, True, False, False]","[""How many flights are there per round?"",""True or false: The hidden values will change each time I start a new round."",""How much does it cost to observe each hidden value?"",""How many hidden values am I allowed to observe in each round?"",""Which statement is TRUE?"",""What does the feedback teach me?""]","[""1"",""True"",""$0.50"",""As many or as few as I wish"",""My earnings for each round are equal to the value of one of the locations I visit (minus the cost of making observations), and I will actually be paid the earnings from one of the 8 rounds."",""Whether I observed the rewards of relevant locations.""]",55362,235914,survey-multi-choice,A1EK8YNHZHTW1J,3GFK2QRXX9H2XFGX1JHOX77FUQKW5I,5
108,"[False, True, True, True, False, True]","[""How many flights are there per round?"",""True or false: The hidden values will change each time I start a new round."",""How much does it cost to observe each hidden value?"",""How many hidden values am I allowed to observe in each round?"",""Which statement is TRUE?"",""What does the feedback teach me?""]","[""1"",""True"",""$0.10"",""As many or as few as I wish"",""My earnings for each round are equal to the value of one of the locations I visit (minus the cost of making observations), and I will actually be paid the earnings from one of the 8 rounds."",""All of the above.""]",70724,570545,survey-multi-choice,A1EK8YNHZHTW1J,3GFK2QRXX9H2XFGX1JHOX77FUQKW5I,5
110,"[False, True, True, True, True, True]","[""How many flights are there per round?"",""True or false: The hidden values will change each time I start a new round."",""How much does it cost to observe each hidden value?"",""How many hidden values am I allowed to observe in each round?"",""Which statement is TRUE?"",""What does the feedback teach me?""]","[""1"",""True"",""$0.10"",""As many or as few as I wish"",""My earnings for each round are equal to the <i>sum</i> of the values of all locations I visit (minus the cost of making observations), and I will be paid the earnings from one of the 8 rounds."",""All of the above.""]",10471,589606,survey-multi-choice,A1EK8YNHZHTW1J,3GFK2QRXX9H2XFGX1JHOX77FUQKW5I,5
112,"[False, True, True, True, False, True]","[""How many flights are there per round?"",""True or false: The hidden values will change each time I start a new round."",""How much does it cost to observe each hidden value?"",""How many hidden values am I allowed to observe in each round?"",""Which statement is TRUE?"",""What does the feedback teach me?""]","[""1"",""True"",""$0.10"",""As many or as few as I wish"",""My earnings for each round are equal to the value of one of the locations I visit (minus the cost of making observations), but these earnings aren't real money."",""All of the above.""]",11095,610638,survey-multi-choice,A1EK8YNHZHTW1J,3GFK2QRXX9H2XFGX1JHOX77FUQKW5I,5
114,"[False, True, True, True, False, True]","[""How many flights are there per round?"",""True or false: The hidden values will change each time I start a new round."",""How much does it cost to observe each hidden value?"",""How many hidden values am I allowed to observe in each round?"",""Which statement is TRUE?"",""What does the feedback teach me?""]","[""1"",""True"",""$0.10"",""As many or as few as I wish"",""My earnings for each round are equal to the <i>sum</i> of the values of all locations I visit (minus the cost of making observations), but these earnings aren't real money."",""All of the above.""]",7858,627061,survey-multi-choice,A1EK8YNHZHTW1J,3GFK2QRXX9H2XFGX1JHOX77FUQKW5I,5
116,"[False, True, True, True, False, False]","[""How many flights are there per round?"",""True or false: The hidden values will change each time I start a new round."",""How much does it cost to observe each hidden value?"",""How many hidden values am I allowed to observe in each round?"",""Which statement is TRUE?"",""What does the feedback teach me?""]","[""1"",""True"",""$0.10"",""As many or as few as I wish"",""My earnings for each round are equal to the value of one of the locations I visit (minus the cost of making observations), and I will actually be paid the earnings from one of the 8 rounds."",""Whether I observed the rewards of relevant locations.""]",99894,794894,survey-multi-choice,A1EK8YNHZHTW1J,3GFK2QRXX9H2XFGX1JHOX77FUQKW5I,5
118,"[False, True, True, True, False, False]","[""How many flights are there per round?"",""True or false: The hidden values will change each time I start a new round."",""How much does it cost to observe each hidden value?"",""How many hidden values am I allowed to observe in each round?"",""Which statement is TRUE?"",""What does the feedback teach me?""]","[""1"",""True"",""$0.10"",""As many or as few as I wish"",""My earnings for each round are equal to the value of one of the locations I visit (minus the cost of making observations), and I will actually be paid the earnings from one of the 8 rounds."",""Whether I chose the move that was best according to the information I had.""]",7657,810093,survey-multi-choice,A1EK8YNHZHTW1J,3GFK2QRXX9H2XFGX1JHOX77FUQKW5I,5
120,"[False, True, True, True, True, False]","[""How many flights are there per round?"",""True or false: The hidden values will change each time I start a new round."",""How much does it cost to observe each hidden value?"",""How many hidden values am I allowed to observe in each round?"",""Which statement is TRUE?"",""What does the feedback teach me?""]","[""1"",""True"",""$0.10"",""As many or as few as I wish"",""My earnings for each round are equal to the <i>sum</i> of the values of all locations I visit (minus the cost of making observations), and I will be paid the earnings from one of the 8 rounds."",""Whether I observed the rewards of relevant locations.""]",7659,829573,survey-multi-choice,A1EK8YNHZHTW1J,3GFK2QRXX9H2XFGX1JHOX77FUQKW5I,5
122,"[False, True, True, True, True, False]","[""How many flights are there per round?"",""True or false: The hidden values will change each time I start a new round."",""How much does it cost to observe each hidden value?"",""How many hidden values am I allowed to observe in each round?"",""Which statement is TRUE?"",""What does the feedback teach me?""]","[""1"",""True"",""$0.10"",""As many or as few as I wish"",""My earnings for each round are equal to the <i>sum</i> of the values of all locations I visit (minus the cost of making observations), and I will be paid the earnings from one of the 8 rounds."",""Whether I chose the move that was best according to the information I had.""]",6432,842452,survey-multi-choice,A1EK8YNHZHTW1J,3GFK2QRXX9H2XFGX1JHOX77FUQKW5I,5
124,"[False, True, True, True, False, False]","[""How many flights are there per round?"",""True or false: The hidden values will change each time I start a new round."",""How much does it cost to observe each hidden value?"",""How many hidden values am I allowed to observe in each round?"",""Which statement is TRUE?"",""What does the feedback teach me?""]","[""1"",""True"",""$0.10"",""As many or as few as I wish"",""My earnings for each round are equal to the value of one of the locations I visit (minus the cost of making observations), but these earnings aren't real money."",""Whether I observed the rewards of relevant locations.""]",9971,860233,survey-multi-choice,A1EK8YNHZHTW1J,3GFK2QRXX9H2XFGX1JHOX77FUQKW5I,5
126,"[False, True, True, True, False, False]","[""How many flights are there per round?"",""True or false: The hidden values will change each time I start a new round."",""How much does it cost to observe each hidden value?"",""How many hidden values am I allowed to observe in each round?"",""Which statement is TRUE?"",""What does the feedback teach me?""]","[""1"",""True"",""$0.10"",""As many or as few as I wish"",""My earnings for each round are equal to the <i>sum</i> of the values of all locations I visit (minus the cost of making observations), but these earnings aren't real money."",""Whether I observed the rewards of relevant locations.""]",10656,881264,survey-multi-choice,A1EK8YNHZHTW1J,3GFK2QRXX9H2XFGX1JHOX77FUQKW5I,5
128,"[False, True, True, True, False, False]","[""How many flights are there per round?"",""True or false: The hidden values will change each time I start a new round."",""How much does it cost to observe each hidden value?"",""How many hidden values am I allowed to observe in each round?"",""Which statement is TRUE?"",""What does the feedback teach me?""]","[""1"",""True"",""$0.10"",""As many or as few as I wish"",""My earnings for each round are equal to the <i>sum</i> of the values of all locations I visit (minus the cost of making observations), but these earnings aren't real money."",""Whether I chose the move that was best according to the information I had.""]",7369,897198,survey-multi-choice,A1EK8YNHZHTW1J,3GFK2QRXX9H2XFGX1JHOX77FUQKW5I,5
130,"[False, True, True, False, False, True]","[""How many flights are there per round?"",""True or false: The hidden values will change each time I start a new round."",""How much does it cost to observe each hidden value?"",""How many hidden values am I allowed to observe in each round?"",""Which statement is TRUE?"",""What does the feedback teach me?""]","[""1"",""True"",""$0.10"",""At most 15"",""My earnings for each round are equal to the value of one of the locations I visit (minus the cost of making observations), and I will actually be paid the earnings from one of the 8 rounds."",""All of the above.""]",13214,918956,survey-multi-choice,A1EK8YNHZHTW1J,3GFK2QRXX9H2XFGX1JHOX77FUQKW5I,5
132,"[False, True, True, False, False, True]","[""How many flights are there per round?"",""True or false: The hidden values will change each time I start a new round."",""How much does it cost to observe each hidden value?"",""How many hidden values am I allowed to observe in each round?"",""Which statement is TRUE?"",""What does the feedback teach me?""]","[""1"",""True"",""$0.10"",""At most 15"",""My earnings for each round are equal to the value of one of the locations I visit (minus the cost of making observations), and I will actually be paid the earnings from one of the 8 rounds."",""All of the above.""]",8119,934240,survey-multi-choice,A1EK8YNHZHTW1J,3GFK2QRXX9H2XFGX1JHOX77FUQKW5I,5
134,"[False, True, True, True, True, False]","[""How many flights are there per round?"",""True or false: The hidden values will change each time I start a new round."",""How much does it cost to observe each hidden value?"",""How many hidden values am I allowed to observe in each round?"",""Which statement is TRUE?"",""What does the feedback teach me?""]","[""1"",""True"",""$0.10"",""As many or as few as I wish"",""My earnings for each round are equal to the <i>sum</i> of the values of all locations I visit (minus the cost of making observations), and I will be paid the earnings from one of the 8 rounds."",""Whether I observed the rewards of relevant locations.""]",34056,979790,survey-multi-choice,A1EK8YNHZHTW1J,3GFK2QRXX9H2XFGX1JHOX77FUQKW5I,5
136,"[False, True, True, True, True, False]","[""How many flights are there per round?"",""True or false: The hidden values will change each time I start a new round."",""How much does it cost to observe each hidden value?"",""How many hidden values am I allowed to observe in each round?"",""Which statement is TRUE?"",""What does the feedback teach me?""]","[""1"",""True"",""$0.10"",""As many or as few as I wish"",""My earnings for each round are equal to the <i>sum</i> of the values of all locations I visit (minus the cost of making observations), and I will be paid the earnings from one of the 8 rounds."",""Whether I chose the move that was best according to the information I had.""]",6867,993261,survey-multi-choice,A1EK8YNHZHTW1J,3GFK2QRXX9H2XFGX1JHOX77FUQKW5I,5
138,"[False, False, True, True, True, True]","[""How many flights are there per round?"",""True or false: The hidden values will change each time I start a new round."",""How much does it cost to observe each hidden value?"",""How many hidden values am I allowed to observe in each round?"",""Which statement is TRUE?"",""What does the feedback teach me?""]","[""1"",""False"",""$0.10"",""As many or as few as I wish"",""My earnings for each round are equal to the <i>sum</i> of the values of all locations I visit (minus the cost of making observations), and I will be paid the earnings from one of the 8 rounds."",""All of the above.""]",26658,1046716,survey-multi-choice,A1EK8YNHZHTW1J,3GFK2QRXX9H2XFGX1JHOX77FUQKW5I,5
140,"[False, True, True, True, True, True]","[""How many flights are there per round?"",""True or false: The hidden values will change each time I start a new round."",""How much does it cost to observe each hidden value?"",""How many hidden values am I allowed to observe in each round?"",""Which statement is TRUE?"",""What does the feedback teach me?""]","[""1"",""True"",""$0.10"",""As many or as few as I wish"",""My earnings for each round are equal to the <i>sum</i> of the values of all locations I visit (minus the cost of making observations), and I will be paid the earnings from one of the 8 rounds."",""All of the above.""]",15078,1131995,survey-multi-choice,A1EK8YNHZHTW1J,3GFK2QRXX9H2XFGX1JHOX77FUQKW5I,5
142,"[False, True, True, True, True, True]","[""How many flights are there per round?"",""True or false: The hidden values will change each time I start a new round."",""How much does it cost to observe each hidden value?"",""How many hidden values am I allowed to observe in each round?"",""Which statement is TRUE?"",""What does the feedback teach me?""]","[""1"",""True"",""$0.10"",""As many or as few as I wish"",""My earnings for each round are equal to the <i>sum</i> of the values of all locations I visit (minus the cost of making observations), and I will be paid the earnings from one of the 8 rounds."",""All of the above.""]",56722,1279788,survey-multi-choice,A1EK8YNHZHTW1J,3GFK2QRXX9H2XFGX1JHOX77FUQKW5I,5
144,"[False, True, True, True, True, False]","[""How many flights are there per round?"",""True or false: The hidden values will change each time I start a new round."",""How much does it cost to observe each hidden value?"",""How many hidden values am I allowed to observe in each round?"",""Which statement is TRUE?"",""What does the feedback teach me?""]","[""1"",""True"",""$0.10"",""As many or as few as I wish"",""My earnings for each round are equal to the <i>sum</i> of the values of all locations I visit (minus the cost of making observations), and I will be paid the earnings from one of the 8 rounds."",""Whether I observed the rewards of relevant locations.""]",27178,1329474,survey-multi-choice,A1EK8YNHZHTW1J,3GFK2QRXX9H2XFGX1JHOX77FUQKW5I,5
146,"[False, True, True, True, True, False]","[""How many flights are there per round?"",""True or false: The hidden values will change each time I start a new round."",""How much does it cost to observe each hidden value?"",""How many hidden values am I allowed to observe in each round?"",""Which statement is TRUE?"",""What does the feedback teach me?""]","[""1"",""True"",""$0.10"",""As many or as few as I wish"",""My earnings for each round are equal to the <i>sum</i> of the values of all locations I visit (minus the cost of making observations), and I will be paid the earnings from one of the 8 rounds."",""Whether I chose the move that was best according to the information I had.""]",9256,1345581,survey-multi-choice,A1EK8YNHZHTW1J,3GFK2QRXX9H2XFGX1JHOX77FUQKW5I,5
148,"[False, True, True, True, True, True]","[""How many flights are there per round?"",""True or false: The hidden values will change each time I start a new round."",""How much does it cost to observe each hidden value?"",""How many hidden values am I allowed to observe in each round?"",""Which statement is TRUE?"",""What does the feedback teach me?""]","[""2"",""True"",""$0.10"",""As many or as few as I wish"",""My earnings for each round are equal to the <i>sum</i> of the values of all locations I visit (minus the cost of making observations), and I will be paid the earnings from one of the 8 rounds."",""All of the above.""]",48785,1401593,survey-multi-choice,A1EK8YNHZHTW1J,3GFK2QRXX9H2XFGX1JHOX77FUQKW5I,5
150,"[True, True, True, True, True, True]","[""How many flights are there per round?"",""True or false: The hidden values will change each time I start a new round."",""How much does it cost to observe each hidden value?"",""How many hidden values am I allowed to observe in each round?"",""Which statement is TRUE?"",""What does the feedback teach me?""]","[""3"",""True"",""$0.10"",""As many or as few as I wish"",""My earnings for each round are equal to the <i>sum</i> of the values of all locations I visit (minus the cost of making observations), and I will be paid the earnings from one of the 8 rounds."",""All of the above.""]",7410,1415085,survey-multi-choice,A1EK8YNHZHTW1J,3GFK2QRXX9H2XFGX1JHOX77FUQKW5I,5
161,"[False, True, True, True, False]","[""How many flights are there per round?"",""True or false: The hidden values will change each time I start a new round."",""How much does it cost to observe each hidden value?"",""How many hidden values am I allowed to observe in each round?"",""Which statement is TRUE?""]","[""1"",""True"",""$0.10"",""As many or as few as I wish"",""My earnings for each round are equal to the value of one of the locations I visit (minus the cost of making observations), and I will actually be paid the earnings from one of the 8 rounds.""]",36271,85834,survey-multi-choice,A1F1OZ54G177D8,3FPRZHYEPY7M4BTOXQOZW8QH9EXV39,6
163,"[False, True, True, True, True]","[""How many flights are there per round?"",""True or false: The hidden values will change each time I start a new round."",""How much does it cost to observe each hidden value?"",""How many hidden values am I allowed to observe in each round?"",""Which statement is TRUE?""]","[""1"",""True"",""$0.10"",""As many or as few as I wish"",""My earnings for each round are equal to the <i>sum</i> of the values of all locations I visit (minus the cost of making observations), and I will be paid the earnings from one of the 8 rounds.""]",42292,262858,survey-multi-choice,A1F1OZ54G177D8,3FPRZHYEPY7M4BTOXQOZW8QH9EXV39,6
165,"[True, True, True, True, True]","[""How many flights are there per round?"",""True or false: The hidden values will change each time I start a new round."",""How much does it cost to observe each hidden value?"",""How many hidden values am I allowed to observe in each round?"",""Which statement is TRUE?""]","[""3"",""True"",""$0.10"",""As many or as few as I wish"",""My earnings for each round are equal to the <i>sum</i> of the values of all locations I visit (minus the cost of making observations), and I will be paid the earnings from one of the 8 rounds.""]",23664,328317,survey-multi-choice,A1F1OZ54G177D8,3FPRZHYEPY7M4BTOXQOZW8QH9EXV39,6
176,"[False, True, True, True, True, True]","[""How many flights are there per round?"",""True or false: The hidden values will change each time I start a new round."",""How much does it cost to observe each hidden value?"",""How many hidden values am I allowed to observe in each round?"",""Which statement is TRUE?"",""True of false: The duration of the delay tells me how much more money I could have earned by planning and deciding better.""]","[""1"",""True"",""$0.10"",""As many or as few as I wish"",""My earnings for each round are equal to the <i>sum</i> of the values of all locations I visit (minus the cost of making observations), and I will be paid the earnings from one of the 8 rounds."",""True""]",75088,177101,survey-multi-choice,A1F9KLZGHE9DTA,39JEC7537U1AHBP7QJZ0PBUBFRAVC7,7
178,"[False, True, True, True, True, True]","[""How many flights are there per round?"",""True or false: The hidden values will change each time I start a new round."",""How much does it cost to observe each hidden value?"",""How many hidden values am I allowed to observe in each round?"",""Which statement is TRUE?"",""True of false: The duration of the delay tells me how much more money I could have earned by planning and deciding better.""]","[""1"",""True"",""$0.10"",""As many or as few as I wish"",""My earnings for each round are equal to the <i>sum</i> of the values of all locations I visit (minus the cost of making observations), and I will be paid the earnings from one of the 8 rounds."",""True""]",49712,352284,survey-multi-choice,A1F9KLZGHE9DTA,39JEC7537U1AHBP7QJZ0PBUBFRAVC7,7
180,"[True, True, True, True, True, True]","[""How many flights are there per round?"",""True or false: The hidden values will change each time I start a new round."",""How much does it cost to observe each hidden value?"",""How many hidden values am I allowed to observe in each round?"",""Which statement is TRUE?"",""True of false: The duration of the delay tells me how much more money I could have earned by planning and deciding better.""]","[""3"",""True"",""$0.10"",""As many or as few as I wish"",""My earnings for each round are equal to the <i>sum</i> of the values of all locations I visit (minus the cost of making observations), and I will be paid the earnings from one of the 8 rounds."",""True""]",29306,473635,survey-multi-choice,A1F9KLZGHE9DTA,39JEC7537U1AHBP7QJZ0PBUBFRAVC7,7
191,"[False, True, True, True, False, True]","[""How many flights are there per round?"",""True or false: The hidden values will change each time I start a new round."",""How much does it cost to observe each hidden value?"",""How many hidden values am I allowed to observe in each round?"",""Which statement is TRUE?"",""What does the feedback teach me?""]","[""4"",""True"",""$0.10"",""As many or as few as I wish"",""My earnings for each round are equal to the value of one of the locations I visit (minus the cost of making observations), and I will actually be paid the earnings from one of the 8 rounds."",""All of the above.""]",81279,294678,survey-multi-choice,A1FFMPJ0W6FHQ8,3MX2NQ3YC9UHMFLNBODAZQLM3LWX54,8
193,"[False, True, True, True, False, False]","[""How many flights are there per round?"",""True or false: The hidden values will change each time I start a new round."",""How much does it cost to observe each hidden value?"",""How many hidden values am I allowed to observe in each round?"",""Which statement is TRUE?"",""What does the feedback teach me?""]","[""4"",""True"",""$0.10"",""As many or as few as I wish"",""My earnings for each round are equal to the value of one of the locations I visit (minus the cost of making observations), and I will actually be paid the earnings from one of the 8 rounds."",""Whether I chose the move that was best according to the information I had.""]",54367,406630,survey-multi-choice,A1FFMPJ0W6FHQ8,3MX2NQ3YC9UHMFLNBODAZQLM3LWX54,8
195,"[False, True, True, True, False, False]","[""How many flights are there per round?"",""True or false: The hidden values will change each time I start a new round."",""How much does it cost to observe each hidden value?"",""How many hidden values am I allowed to observe in each round?"",""Which statement is TRUE?"",""What does the feedback teach me?""]","[""4"",""True"",""$0.10"",""As many or as few as I wish"",""My earnings for each round are equal to the value of one of the locations I visit (minus the cost of making observations), and I will actually be paid the earnings from one of the 8 rounds."",""The duration of the delay tells me how much more money I could have earned by planning and deciding better.""]",23383,469805,survey-multi-choice,A1FFMPJ0W6FHQ8,3MX2NQ3YC9UHMFLNBODAZQLM3LWX54,8
197,"[False, True, True, True, False, False]","[""How many flights are there per round?"",""True or false: The hidden values will change each time I start a new round."",""How much does it cost to observe each hidden value?"",""How many hidden values am I allowed to observe in each round?"",""Which statement is TRUE?"",""What does the feedback teach me?""]","[""1"",""True"",""$0.10"",""As many or as few as I wish"",""My earnings for each round are equal to the value of one of the locations I visit (minus the cost of making observations), and I will actually be paid the earnings from one of the 8 rounds."",""Whether I chose the move that was best according to the information I had.""]",39231,549430,survey-multi-choice,A1FFMPJ0W6FHQ8,3MX2NQ3YC9UHMFLNBODAZQLM3LWX54,8
199,"[False, True, True, True, False, True]","[""How many flights are there per round?"",""True or false: The hidden values will change each time I start a new round."",""How much does it cost to observe each hidden value?"",""How many hidden values am I allowed to observe in each round?"",""Which statement is TRUE?"",""What does the feedback teach me?""]","[""1"",""True"",""$0.10"",""As many or as few as I wish"",""My earnings for each round are equal to the value of one of the locations I visit (minus the cost of making observations), and I will actually be paid the earnings from one of the 8 rounds."",""All of the above.""]",11032,619445,survey-multi-choice,A1FFMPJ0W6FHQ8,3MX2NQ3YC9UHMFLNBODAZQLM3LWX54,8
201,"[False, True, True, True, False, True]","[""How many flights are there per round?"",""True or false: The hidden values will change each time I start a new round."",""How much does it cost to observe each hidden value?"",""How many hidden values am I allowed to observe in each round?"",""Which statement is TRUE?"",""What does the feedback teach me?""]","[""1"",""True"",""$0.10"",""As many or as few as I wish"",""My earnings for each round are equal to the value of one of the locations I visit (minus the cost of making observations), but these earnings aren't real money."",""All of the above.""]",16269,643591,survey-multi-choice,A1FFMPJ0W6FHQ8,3MX2NQ3YC9UHMFLNBODAZQLM3LWX54,8
203,"[False, True, True, True, True, True]","[""How many flights are there per round?"",""True or false: The hidden values will change each time I start a new round."",""How much does it cost to observe each hidden value?"",""How many hidden values am I allowed to observe in each round?"",""Which statement is TRUE?"",""What does the feedback teach me?""]","[""1"",""True"",""$0.10"",""As many or as few as I wish"",""My earnings for each round are equal to the <i>sum</i> of the values of all locations I visit (minus the cost of making observations), and I will be paid the earnings from one of the 8 rounds."",""All of the above.""]",32460,785269,survey-multi-choice,A1FFMPJ0W6FHQ8,3MX2NQ3YC9UHMFLNBODAZQLM3LWX54,8
205,"[True, True, True, True, True, True]","[""How many flights are there per round?"",""True or false: The hidden values will change each time I start a new round."",""How much does it cost to observe each hidden value?"",""How many hidden values am I allowed to observe in each round?"",""Which statement is TRUE?"",""What does the feedback teach me?""]","[""3"",""True"",""$0.10"",""As many or as few as I wish"",""My earnings for each round are equal to the <i>sum</i> of the values of all locations I visit (minus the cost of making observations), and I will be paid the earnings from one of the 8 rounds."",""All of the above.""]",19829,811048,survey-multi-choice,A1FFMPJ0W6FHQ8,3MX2NQ3YC9UHMFLNBODAZQLM3LWX54,8
216,"[True, True, True, True, True]","[""How many flights are there per round?"",""True or false: The hidden values will change each time I start a new round."",""How much does it cost to observe each hidden value?"",""How many hidden values am I allowed to observe in each round?"",""Which statement is TRUE?""]","[""3"",""True"",""$0.10"",""As many or as few as I wish"",""My earnings for each round are equal to the <i>sum</i> of the values of all locations I visit (minus the cost of making observations), and I will be paid the earnings from one of the 8 rounds.""]",199366,410270,survey-multi-choice,A1FQGVP8SX5WE2,3VELCLL3GKJ1YBTJA75CQT8YN0WF1E,9
227,"[False, True, True, True, True, True]","[""How many flights are there per round?"",""True or false: The hidden values will change each time I start a new round."",""How much does it cost to observe each hidden value?"",""How many hidden values am I allowed to observe in each round?"",""Which statement is TRUE?"",""True of false: The duration of the delay tells me how much more money I could have earned by planning and deciding better.""]","[""1"",""True"",""$0.10"",""As many or as few as I wish"",""My earnings for each round are equal to the <i>sum</i> of the values of all locations I visit (minus the cost of making observations), and I will be paid the earnings from one of the 8 rounds."",""True""]",74681,195725,survey-multi-choice,A1GRPIBHW72HDU,3X65QVEQI0N7L6DDCFXU22W9OT9CL6,10
229,"[False, True, True, True, False, True]","[""How many flights are there per round?"",""True or false: The hidden values will change each time I start a new round."",""How much does it cost to observe each hidden value?"",""How many hidden values am I allowed to observe in each round?"",""Which statement is TRUE?"",""True of false: The duration of the delay tells me how much more money I could have earned by planning and deciding better.""]","[""1"",""True"",""$0.10"",""As many or as few as I wish"",""My earnings for each round are equal to the value of one of the locations I visit (minus the cost of making observations), and I will actually be paid the earnings from one of the 8 rounds."",""True""]",26349,287376,survey-multi-choice,A1GRPIBHW72HDU,3X65QVEQI0N7L6DDCFXU22W9OT9CL6,10
231,"[False, True, True, True, False, False]","[""How many flights are there per round?"",""True or false: The hidden values will change each time I start a new round."",""How much does it cost to observe each hidden value?"",""How many hidden values am I allowed to observe in each round?"",""Which statement is TRUE?"",""True of false: The duration of the delay tells me how much more money I could have earned by planning and deciding better.""]","[""1"",""True"",""$0.10"",""As many or as few as I wish"",""My earnings for each round are equal to the value of one of the locations I visit (minus the cost of making observations), and I will actually be paid the earnings from one of the 8 rounds."",""False""]",14013,315441,survey-multi-choice,A1GRPIBHW72HDU,3X65QVEQI0N7L6DDCFXU22W9OT9CL6,10
233,"[True, True, True, True, False, True]","[""How many flights are there per round?"",""True or false: The hidden values will change each time I start a new round."",""How much does it cost to observe each hidden value?"",""How many hidden values am I allowed to observe in each round?"",""Which statement is TRUE?"",""True of false: The duration of the delay tells me how much more money I could have earned by planning and deciding better.""]","[""3"",""True"",""$0.10"",""As many or as few as I wish"",""My earnings for each round are equal to the value of one of the locations I visit (minus the cost of making observations), and I will actually be paid the earnings from one of the 8 rounds."",""True""]",11318,406270,survey-multi-choice,A1GRPIBHW72HDU,3X65QVEQI0N7L6DDCFXU22W9OT9CL6,10
235,"[True, True, True, True, True, True]","[""How many flights are there per round?"",""True or false: The hidden values will change each time I start a new round."",""How much does it cost to observe each hidden value?"",""How many hidden values am I allowed to observe in each round?"",""Which statement is TRUE?"",""True of false: The duration of the delay tells me how much more money I could have earned by planning and deciding better.""]","[""3"",""True"",""$0.10"",""As many or as few as I wish"",""My earnings for each round are equal to the <i>sum</i> of the values of all locations I visit (minus the cost of making observations), and I will be paid the earnings from one of the 8 rounds."",""True""]",26996,484812,survey-multi-choice,A1GRPIBHW72HDU,3X65QVEQI0N7L6DDCFXU22W9OT9CL6,10
246,"[False, True, True, True, True, False]","[""How many flights are there per round?"",""True or false: The hidden values will change each time I start a new round."",""How much does it cost to observe each hidden value?"",""How many hidden values am I allowed to observe in each round?"",""Which statement is TRUE?"",""True of false: The duration of the delay tells me how much more money I could have earned by planning and deciding better.""]","[""4"",""True"",""$0.10"",""As many or as few as I wish"",""My earnings for each round are equal to the <i>sum</i> of the values of all locations I visit (minus the cost of making observations), and I will be paid the earnings from one of the 8 rounds."",""False""]",37837,138353,survey-multi-choice,A1KGCOR8OXYR72,3AZHRG4CU4K6BAS8UT0ABF0RFIL03N,11
248,"[True, True, True, True, True, False]","[""How many flights are there per round?"",""True or false: The hidden values will change each time I start a new round."",""How much does it cost to observe each hidden value?"",""How many hidden values am I allowed to observe in each round?"",""Which statement is TRUE?"",""True of false: The duration of the delay tells me how much more money I could have earned by planning and deciding better.""]","[""3"",""True"",""$0.10"",""As many or as few as I wish"",""My earnings for each round are equal to the <i>sum</i> of the values of all locations I visit (minus the cost of making observations), and I will be paid the earnings from one of the 8 rounds."",""False""]",13033,188776,survey-multi-choice,A1KGCOR8OXYR72,3AZHRG4CU4K6BAS8UT0ABF0RFIL03N,11
250,"[True, True, True, True, True, True]","[""How many flights are there per round?"",""True or false: The hidden values will change each time I start a new round."",""How much does it cost to observe each hidden value?"",""How many hidden values am I allowed to observe in each round?"",""Which statement is TRUE?"",""True of false: The duration of the delay tells me how much more money I could have earned by planning and deciding better.""]","[""3"",""True"",""$0.10"",""As many or as few as I wish"",""My earnings for each round are equal to the <i>sum</i> of the values of all locations I visit (minus the cost of making observations), and I will be paid the earnings from one of the 8 rounds."",""True""]",9560,211075,survey-multi-choice,A1KGCOR8OXYR72,3AZHRG4CU4K6BAS8UT0ABF0RFIL03N,11
261,"[True, True, True, False, False]","[""How many flights are there per round?"",""True or false: The hidden values will change each time I start a new round."",""How much does it cost to observe each hidden value?"",""How many hidden values am I allowed to observe in each round?"",""Which statement is TRUE?""]","[""3"",""True"",""$0.10"",""At most 1"",""My earnings for each round are equal to the <i>sum</i> of the values of all locations I visit (minus the cost of making observations), but these earnings aren't real money.""]",55639,86540,survey-multi-choice,A1L8EDNM7HZZAX,3EICBYG644W1QGPD9ULHMNJHK44CJ4,12
263,"[False, True, True, True, False]","[""How many flights are there per round?"",""True or false: The hidden values will change each time I start a new round."",""How much does it cost to observe each hidden value?"",""How many hidden values am I allowed to observe in each round?"",""Which statement is TRUE?""]","[""2"",""True"",""$0.10"",""As many or as few as I wish"",""My earnings for each round are equal to the value of one of the locations I visit (minus the cost of making observations), and I will actually be paid the earnings from one of the 8 rounds.""]",26512,724491,survey-multi-choice,A1L8EDNM7HZZAX,3EICBYG644W1QGPD9ULHMNJHK44CJ4,12
265,"[False, True, True, True, True]","[""How many flights are there per round?"",""True or false: The hidden values will change each time I start a new round."",""How much does it cost to observe each hidden value?"",""How many hidden values am I allowed to observe in each round?"",""Which statement is TRUE?""]","[""2"",""True"",""$0.10"",""As many or as few as I wish"",""My earnings for each round are equal to the <i>sum</i> of the values of all locations I visit (minus the cost of making observations), and I will be paid the earnings from one of the 8 rounds.""]",40352,842177,survey-multi-choice,A1L8EDNM7HZZAX,3EICBYG644W1QGPD9ULHMNJHK44CJ4,12
267,"[False, True, True, True, False]","[""How many flights are there per round?"",""True or false: The hidden values will change each time I start a new round."",""How much does it cost to observe each hidden value?"",""How many hidden values am I allowed to observe in each round?"",""Which statement is TRUE?""]","[""2"",""True"",""$0.10"",""As many or as few as I wish"",""My earnings for each round are equal to the <i>sum</i> of the values of all locations I visit (minus the cost of making observations), but these earnings aren't real money.""]",15874,863334,survey-multi-choice,A1L8EDNM7HZZAX,3EICBYG644W1QGPD9ULHMNJHK44CJ4,12
269,"[True, True, True, True, True]","[""How many flights are there per round?"",""True or false: The hidden values will change each time I start a new round."",""How much does it cost to observe each hidden value?"",""How many hidden values am I allowed to observe in each round?"",""Which statement is TRUE?""]","[""3"",""True"",""$0.10"",""As many or as few as I wish"",""My earnings for each round are equal to the <i>sum</i> of the values of all locations I visit (minus the cost of making observations), and I will be paid the earnings from one of the 8 rounds.""]",11078,890194,survey-multi-choice,A1L8EDNM7HZZAX,3EICBYG644W1QGPD9ULHMNJHK44CJ4,12
280,"[True, True, True, True, False]","[""How many flights are there per round?"",""True or false: The hidden values will change each time I start a new round."",""How much does it cost to observe each hidden value?"",""How many hidden values am I allowed to observe in each round?"",""Which statement is TRUE?""]","[""3"",""True"",""$0.10"",""As many or as few as I wish"",""My earnings for each round are equal to the value of one of the locations I visit (minus the cost of making observations), and I will actually be paid the earnings from one of the 8 rounds.""]",39155,104802,survey-multi-choice,A1LMXY8R59ZUHU,3JC6VJ2SABJ5Q2DU0ELWFIAO20O5A9,13
282,"[False, True, True, True, True]","[""How many flights are there per round?"",""True or false: The hidden values will change each time I start a new round."",""How much does it cost to observe each hidden value?"",""How many hidden values am I allowed to observe in each round?"",""Which statement is TRUE?""]","[""4"",""True"",""$0.10"",""As many or as few as I wish"",""My earnings for each round are equal to the <i>sum</i> of the values of all locations I visit (minus the cost of making observations), and I will be paid the earnings from one of the 8 rounds.""]",29681,192742,survey-multi-choice,A1LMXY8R59ZUHU,3JC6VJ2SABJ5Q2DU0ELWFIAO20O5A9,13
284,"[False, True, True, True, True]","[""How many flights are there per round?"",""True or false: The hidden values will change each time I start a new round."",""How much does it cost to observe each hidden value?"",""How many hidden values am I allowed to observe in each round?"",""Which statement is TRUE?""]","[""2"",""True"",""$0.10"",""As many or as few as I wish"",""My earnings for each round are equal to the <i>sum</i> of the values of all locations I visit (minus the cost of making observations), and I will be paid the earnings from one of the 8 rounds.""]",20319,247859,survey-multi-choice,A1LMXY8R59ZUHU,3JC6VJ2SABJ5Q2DU0ELWFIAO20O5A9,13
286,"[False, True, True, True, True]","[""How many flights are there per round?"",""True or false: The hidden values will change each time I start a new round."",""How much does it cost to observe each hidden value?"",""How many hidden values am I allowed to observe in each round?"",""Which statement is TRUE?""]","[""1"",""True"",""$0.10"",""As many or as few as I wish"",""My earnings for each round are equal to the <i>sum</i> of the values of all locations I visit (minus the cost of making observations), and I will be paid the earnings from one of the 8 rounds.""]",22148,312539,survey-multi-choice,A1LMXY8R59ZUHU,3JC6VJ2SABJ5Q2DU0ELWFIAO20O5A9,13
288,"[False, True, True, True, True]","[""How many flights are there per round?"",""True or false: The hidden values will change each time I start a new round."",""How much does it cost to observe each hidden value?"",""How many hidden values am I allowed to observe in each round?"",""Which statement is TRUE?""]","[""1"",""True"",""$0.10"",""As many or as few as I wish"",""My earnings for each round are equal to the <i>sum</i> of the values of all locations I visit (minus the cost of making observations), and I will be paid the earnings from one of the 8 rounds.""]",9769,329596,survey-multi-choice,A1LMXY8R59ZUHU,3JC6VJ2SABJ5Q2DU0ELWFIAO20O5A9,13
290,"[True, True, True, True, True]","[""How many flights are there per round?"",""True or false: The hidden values will change each time I start a new round."",""How much does it cost to observe each hidden value?"",""How many hidden values am I allowed to observe in each round?"",""Which statement is TRUE?""]","[""3"",""True"",""$0.10"",""As many or as few as I wish"",""My earnings for each round are equal to the <i>sum</i> of the values of all locations I visit (minus the cost of making observations), and I will be paid the earnings from one of the 8 rounds.""]",12771,347904,survey-multi-choice,A1LMXY8R59ZUHU,3JC6VJ2SABJ5Q2DU0ELWFIAO20O5A9,13
301,"[False, True, True, True, True, True]","[""How many flights are there per round?"",""True or false: The hidden values will change each time I start a new round."",""How much does it cost to observe each hidden value?"",""How many hidden values am I allowed to observe in each round?"",""Which statement is TRUE?"",""What does the feedback teach me?""]","[""1"",""True"",""$0.10"",""As many or as few as I wish"",""My earnings for each round are equal to the <i>sum</i> of the values of all locations I visit (minus the cost of making observations), and I will be paid the earnings from one of the 8 rounds."",""All of the above.""]",73334,235402,survey-multi-choice,A1LRDHZZUVF9AZ,3PW9OPU9PQKHXHH7MCQ56AE9EWR21H,14
303,"[True, True, True, True, True, True]","[""How many flights are there per round?"",""True or false: The hidden values will change each time I start a new round."",""How much does it cost to observe each hidden value?"",""How many hidden values am I allowed to observe in each round?"",""Which statement is TRUE?"",""What does the feedback teach me?""]","[""3"",""True"",""$0.10"",""As many or as few as I wish"",""My earnings for each round are equal to the <i>sum</i> of the values of all locations I visit (minus the cost of making observations), and I will be paid the earnings from one of the 8 rounds."",""All of the above.""]",67319,391162,survey-multi-choice,A1LRDHZZUVF9AZ,3PW9OPU9PQKHXHH7MCQ56AE9EWR21H,14
314,"[False, True, True, True, True]","[""How many flights are there per round?"",""True or false: The hidden values will change each time I start a new round."",""How much does it cost to observe each hidden value?"",""How many hidden values am I allowed to observe in each round?"",""Which statement is TRUE?""]","[""1"",""True"",""$0.10"",""As many or as few as I wish"",""My earnings for each round are equal to the <i>sum</i> of the values of all locations I visit (minus the cost of making observations), and I will be paid the earnings from one of the 8 rounds.""]",22759,89404,survey-multi-choice,A1OQ3KL56KMQSU,35DR22AR5DKE80YJX5PHKTN2PP5X3E,15
316,"[False, True, True, True, True]","[""How many flights are there per round?"",""True or false: The hidden values will change each time I start a new round."",""How much does it cost to observe each hidden value?"",""How many hidden values am I allowed to observe in each round?"",""Which statement is TRUE?""]","[""1"",""True"",""$0.10"",""As many or as few as I wish"",""My earnings for each round are equal to the <i>sum</i> of the values of all locations I visit (minus the cost of making observations), and I will be paid the earnings from one of the 8 rounds.""]",32352,170669,survey-multi-choice,A1OQ3KL56KMQSU,35DR22AR5DKE80YJX5PHKTN2PP5X3E,15
318,"[True, True, True, True, True]","[""How many flights are there per round?"",""True or false: The hidden values will change each time I start a new round."",""How much does it cost to observe each hidden value?"",""How many hidden values am I allowed to observe in each round?"",""Which statement is TRUE?""]","[""3"",""True"",""$0.10"",""As many or as few as I wish"",""My earnings for each round are equal to the <i>sum</i> of the values of all locations I visit (minus the cost of making observations), and I will be paid the earnings from one of the 8 rounds.""]",7352,196400,survey-multi-choice,A1OQ3KL56KMQSU,35DR22AR5DKE80YJX5PHKTN2PP5X3E,15
329,"[False, True, True, True, True, True]","[""How many flights are there per round?"",""True or false: The hidden values will change each time I start a new round."",""How much does it cost to observe each hidden value?"",""How many hidden values am I allowed to observe in each round?"",""Which statement is TRUE?"",""What does the feedback teach me?""]","[""1"",""True"",""$0.10"",""As many or as few as I wish"",""My earnings for each round are equal to the <i>sum</i> of the values of all locations I visit (minus the cost of making observations), and I will be paid the earnings from one of the 8 rounds."",""All of the above.""]",59143,207154,survey-multi-choice,A1P6OXEJ86HQRM,3ON104KXQKWK1WCXNEYESF11UNW4WE,16
331,"[False, False, True, True, True, True]","[""How many flights are there per round?"",""True or false: The hidden values will change each time I start a new round."",""How much does it cost to observe each hidden value?"",""How many hidden values am I allowed to observe in each round?"",""Which statement is TRUE?"",""What does the feedback teach me?""]","[""1"",""False"",""$0.10"",""As many or as few as I wish"",""My earnings for each round are equal to the <i>sum</i> of the values of all locations I visit (minus the cost of making observations), and I will be paid the earnings from one of the 8 rounds."",""All of the above.""]",26534,411793,survey-multi-choice,A1P6OXEJ86HQRM,3ON104KXQKWK1WCXNEYESF11UNW4WE,16
333,"[False, True, True, True, False, True]","[""How many flights are there per round?"",""True or false: The hidden values will change each time I start a new round."",""How much does it cost to observe each hidden value?"",""How many hidden values am I allowed to observe in each round?"",""Which statement is TRUE?"",""What does the feedback teach me?""]","[""1"",""True"",""$0.10"",""As many or as few as I wish"",""My earnings for each round are equal to the value of one of the locations I visit (minus the cost of making observations), and I will actually be paid the earnings from one of the 8 rounds."",""All of the above.""]",26873,518366,survey-multi-choice,A1P6OXEJ86HQRM,3ON104KXQKWK1WCXNEYESF11UNW4WE,16
335,"[False, True, True, True, False, True]","[""How many flights are there per round?"",""True or false: The hidden values will change each time I start a new round."",""How much does it cost to observe each hidden value?"",""How many hidden values am I allowed to observe in each round?"",""Which statement is TRUE?"",""What does the feedback teach me?""]","[""1"",""True"",""$0.10"",""As many or as few as I wish"",""My earnings for each round are equal to the <i>sum</i> of the values of all locations I visit (minus the cost of making observations), but these earnings aren't real money."",""All of the above.""]",40872,628832,survey-multi-choice,A1P6OXEJ86HQRM,3ON104KXQKWK1WCXNEYESF11UNW4WE,16
337,"[False, True, True, True, False, False]","[""How many flights are there per round?"",""True or false: The hidden values will change each time I start a new round."",""How much does it cost to observe each hidden value?"",""How many hidden values am I allowed to observe in each round?"",""Which statement is TRUE?"",""What does the feedback teach me?""]","[""1"",""True"",""$0.10"",""As many or as few as I wish"",""My earnings for each round are equal to the <i>sum</i> of the values of all locations I visit (minus the cost of making observations), but these earnings aren't real money."",""Whether I observed the rewards of relevant locations.""]",41900,699400,survey-multi-choice,A1P6OXEJ86HQRM,3ON104KXQKWK1WCXNEYESF11UNW4WE,16
339,"[False, True, True, True, True, False]","[""How many flights are there per round?"",""True or false: The hidden values will change each time I start a new round."",""How much does it cost to observe each hidden value?"",""How many hidden values am I allowed to observe in each round?"",""Which statement is TRUE?"",""What does the feedback teach me?""]","[""1"",""True"",""$0.10"",""As many or as few as I wish"",""My earnings for each round are equal to the <i>sum</i> of the values of all locations I visit (minus the cost of making observations), and I will be paid the earnings from one of the 8 rounds."",""Whether I observed the rewards of relevant locations.""]",8045,715154,survey-multi-choice,A1P6OXEJ86HQRM,3ON104KXQKWK1WCXNEYESF11UNW4WE,16
341,"[False, True, True, True, True, False]","[""How many flights are there per round?"",""True or false: The hidden values will change each time I start a new round."",""How much does it cost to observe each hidden value?"",""How many hidden values am I allowed to observe in each round?"",""Which statement is TRUE?"",""What does the feedback teach me?""]","[""1"",""True"",""$0.10"",""As many or as few as I wish"",""My earnings for each round are equal to the <i>sum</i> of the values of all locations I visit (minus the cost of making observations), and I will be paid the earnings from one of the 8 rounds."",""The duration of the delay tells me how much more money I could have earned by planning and deciding better.""]",31887,849023,survey-multi-choice,A1P6OXEJ86HQRM,3ON104KXQKWK1WCXNEYESF11UNW4WE,16
343,"[False, True, True, True, False, True]","[""How many flights are there per round?"",""True or false: The hidden values will change each time I start a new round."",""How much does it cost to observe each hidden value?"",""How many hidden values am I allowed to observe in each round?"",""Which statement is TRUE?"",""What does the feedback teach me?""]","[""1"",""True"",""$0.10"",""As many or as few as I wish"",""My earnings for each round are equal to the <i>sum</i> of the values of all locations I visit (minus the cost of making observations), but these earnings aren't real money."",""All of the above.""]",25940,939396,survey-multi-choice,A1P6OXEJ86HQRM,3ON104KXQKWK1WCXNEYESF11UNW4WE,16
345,"[False, True, True, True, True, True]","[""How many flights are there per round?"",""True or false: The hidden values will change each time I start a new round."",""How much does it cost to observe each hidden value?"",""How many hidden values am I allowed to observe in each round?"",""Which statement is TRUE?"",""What does the feedback teach me?""]","[""2"",""True"",""$0.10"",""As many or as few as I wish"",""My earnings for each round are equal to the <i>sum</i> of the values of all locations I visit (minus the cost of making observations), and I will be paid the earnings from one of the 8 rounds."",""All of the above.""]",68028,1017836,survey-multi-choice,A1P6OXEJ86HQRM,3ON104KXQKWK1WCXNEYESF11UNW4WE,16
347,"[True, True, True, True, True, True]","[""How many flights are there per round?"",""True or false: The hidden values will change each time I start a new round."",""How much does it cost to observe each hidden value?"",""How many hidden values am I allowed to observe in each round?"",""Which statement is TRUE?"",""What does the feedback teach me?""]","[""3"",""True"",""$0.10"",""As many or as few as I wish"",""My earnings for each round are equal to the <i>sum</i> of the values of all locations I visit (minus the cost of making observations), and I will be paid the earnings from one of the 8 rounds."",""All of the above.""]",9121,1032392,survey-multi-choice,A1P6OXEJ86HQRM,3ON104KXQKWK1WCXNEYESF11UNW4WE,16
358,"[False, True, True, True, True, True]","[""How many flights are there per round?"",""True or false: The hidden values will change each time I start a new round."",""How much does it cost to observe each hidden value?"",""How many hidden values am I allowed to observe in each round?"",""Which statement is TRUE?"",""What does the feedback teach me?""]","[""4"",""True"",""$0.10"",""As many or as few as I wish"",""My earnings for each round are equal to the <i>sum</i> of the values of all locations I visit (minus the cost of making observations), and I will be paid the earnings from one of the 8 rounds."",""All of the above.""]",13013,45176,survey-multi-choice,A1SLJKNSNHOJRN,3LOZAJ85YDDPNI20T5BC1JIAJB5X23,17
360,"[False, True, True, True, True, False]","[""How many flights are there per round?"",""True or false: The hidden values will change each time I start a new round."",""How much does it cost to observe each hidden value?"",""How many hidden values am I allowed to observe in each round?"",""Which statement is TRUE?"",""What does the feedback teach me?""]","[""4"",""True"",""$0.10"",""As many or as few as I wish"",""My earnings for each round are equal to the <i>sum</i> of the values of all locations I visit (minus the cost of making observations), and I will be paid the earnings from one of the 8 rounds."",""Whether I chose the move that was best according to the information I had.""]",20186,71565,survey-multi-choice,A1SLJKNSNHOJRN,3LOZAJ85YDDPNI20T5BC1JIAJB5X23,17
362,"[False, True, True, True, True, False]","[""How many flights are there per round?"",""True or false: The hidden values will change each time I start a new round."",""How much does it cost to observe each hidden value?"",""How many hidden values am I allowed to observe in each round?"",""Which statement is TRUE?"",""What does the feedback teach me?""]","[""4"",""True"",""$0.10"",""As many or as few as I wish"",""My earnings for each round are equal to the <i>sum</i> of the values of all locations I visit (minus the cost of making observations), and I will be paid the earnings from one of the 8 rounds."",""Whether I observed the rewards of relevant locations.""]",29382,108044,survey-multi-choice,A1SLJKNSNHOJRN,3LOZAJ85YDDPNI20T5BC1JIAJB5X23,17
364,"[True, True, True, True, True, True]","[""How many flights are there per round?"",""True or false: The hidden values will change each time I start a new round."",""How much does it cost to observe each hidden value?"",""How many hidden values am I allowed to observe in each round?"",""Which statement is TRUE?"",""What does the feedback teach me?""]","[""3"",""True"",""$0.10"",""As many or as few as I wish"",""My earnings for each round are equal to the <i>sum</i> of the values of all locations I visit (minus the cost of making observations), and I will be paid the earnings from one of the 8 rounds."",""All of the above.""]",11798,125802,survey-multi-choice,A1SLJKNSNHOJRN,3LOZAJ85YDDPNI20T5BC1JIAJB5X23,17
375,"[False, True, True, True, False, False]","[""How many flights are there per round?"",""True or false: The hidden values will change each time I start a new round."",""How much does it cost to observe each hidden value?"",""How many hidden values am I allowed to observe in each round?"",""Which statement is TRUE?"",""True of false: The duration of the delay tells me how much more money I could have earned by planning and deciding better.""]","[""1"",""True"",""$0.10"",""As many or as few as I wish"",""My earnings for each round are equal to the <i>sum</i> of the values of all locations I visit (minus the cost of making observations), but these earnings aren't real money."",""False""]",61616,133004,survey-multi-choice,A1TL6GOSY0W1YC,3DH6GAKTYYP4TYVMN86S78ZQ6QYZYJ,18
377,"[False, True, True, True, False, True]","[""How many flights are there per round?"",""True or false: The hidden values will change each time I start a new round."",""How much does it cost to observe each hidden value?"",""How many hidden values am I allowed to observe in each round?"",""Which statement is TRUE?"",""True of false: The duration of the delay tells me how much more money I could have earned by planning and deciding better.""]","[""1"",""True"",""$0.10"",""As many or as few as I wish"",""My earnings for each round are equal to the <i>sum</i> of the values of all locations I visit (minus the cost of making observations), but these earnings aren't real money."",""True""]",24702,223461,survey-multi-choice,A1TL6GOSY0W1YC,3DH6GAKTYYP4TYVMN86S78ZQ6QYZYJ,18
379,"[False, True, True, True, True, True]","[""How many flights are there per round?"",""True or false: The hidden values will change each time I start a new round."",""How much does it cost to observe each hidden value?"",""How many hidden values am I allowed to observe in each round?"",""Which statement is TRUE?"",""True of false: The duration of the delay tells me how much more money I could have earned by planning and deciding better.""]","[""1"",""True"",""$0.10"",""As many or as few as I wish"",""My earnings for each round are equal to the <i>sum</i> of the values of all locations I visit (minus the cost of making observations), and I will be paid the earnings from one of the 8 rounds."",""True""]",29927,284412,survey-multi-choice,A1TL6GOSY0W1YC,3DH6GAKTYYP4TYVMN86S78ZQ6QYZYJ,18
381,"[False, True, True, True, True, True]","[""How many flights are there per round?"",""True or false: The hidden values will change each time I start a new round."",""How much does it cost to observe each hidden value?"",""How many hidden values am I allowed to observe in each round?"",""Which statement is TRUE?"",""True of false: The duration of the delay tells me how much more money I could have earned by planning and deciding better.""]","[""1"",""True"",""$0.10"",""As many or as few as I wish"",""My earnings for each round are equal to the <i>sum</i> of the values of all locations I visit (minus the cost of making observations), and I will be paid the earnings from one of the 8 rounds."",""True""]",26183,324106,survey-multi-choice,A1TL6GOSY0W1YC,3DH6GAKTYYP4TYVMN86S78ZQ6QYZYJ,18
383,"[False, True, True, True, True, True]","[""How many flights are there per round?"",""True or false: The hidden values will change each time I start a new round."",""How much does it cost to observe each hidden value?"",""How many hidden values am I allowed to observe in each round?"",""Which statement is TRUE?"",""True of false: The duration of the delay tells me how much more money I could have earned by planning and deciding better.""]","[""2"",""True"",""$0.10"",""As many or as few as I wish"",""My earnings for each round are equal to the <i>sum</i> of the values of all locations I visit (minus the cost of making observations), and I will be paid the earnings from one of the 8 rounds."",""True""]",40555,511216,survey-multi-choice,A1TL6GOSY0W1YC,3DH6GAKTYYP4TYVMN86S78ZQ6QYZYJ,18
385,"[True, True, True, True, True, True]","[""How many flights are there per round?"",""True or false: The hidden values will change each time I start a new round."",""How much does it cost to observe each hidden value?"",""How many hidden values am I allowed to observe in each round?"",""Which statement is TRUE?"",""True of false: The duration of the delay tells me how much more money I could have earned by planning and deciding better.""]","[""3"",""True"",""$0.10"",""As many or as few as I wish"",""My earnings for each round are equal to the <i>sum</i> of the values of all locations I visit (minus the cost of making observations), and I will be paid the earnings from one of the 8 rounds."",""True""]",10182,542928,survey-multi-choice,A1TL6GOSY0W1YC,3DH6GAKTYYP4TYVMN86S78ZQ6QYZYJ,18
396,"[False, True, True, True, True, True]","[""How many flights are there per round?"",""True or false: The hidden values will change each time I start a new round."",""How much does it cost to observe each hidden value?"",""How many hidden values am I allowed to observe in each round?"",""Which statement is TRUE?"",""True of false: The duration of the delay tells me how much more money I could have earned by planning and deciding better.""]","[""1"",""True"",""$0.10"",""As many or as few as I wish"",""My earnings for each round are equal to the <i>sum</i> of the values of all locations I visit (minus the cost of making observations), and I will be paid the earnings from one of the 8 rounds."",""True""]",95612,227799,survey-multi-choice,A1U8RH67FLZW87,30BUDKLTXDV8GFU6GJNIB10FNFM5E4,19
398,"[False, True, True, True, False, True]","[""How many flights are there per round?"",""True or false: The hidden values will change each time I start a new round."",""How much does it cost to observe each hidden value?"",""How many hidden values am I allowed to observe in each round?"",""Which statement is TRUE?"",""True of false: The duration of the delay tells me how much more money I could have earned by planning and deciding better.""]","[""1"",""True"",""$0.10"",""As many or as few as I wish"",""My earnings for each round are equal to the value of one of the locations I visit (minus the cost of making observations), and I will actually be paid the earnings from one of the 8 rounds."",""True""]",62216,350740,survey-multi-choice,A1U8RH67FLZW87,30BUDKLTXDV8GFU6GJNIB10FNFM5E4,19
400,"[False, True, True, True, False, True]","[""How many flights are there per round?"",""True or false: The hidden values will change each time I start a new round."",""How much does it cost to observe each hidden value?"",""How many hidden values am I allowed to observe in each round?"",""Which statement is TRUE?"",""True of false: The duration of the delay tells me how much more money I could have earned by planning and deciding better.""]","[""1"",""True"",""$0.10"",""As many or as few as I wish"",""My earnings for each round are equal to the value of one of the locations I visit (minus the cost of making observations), but these earnings aren't real money."",""True""]",10685,369389,survey-multi-choice,A1U8RH67FLZW87,30BUDKLTXDV8GFU6GJNIB10FNFM5E4,19
402,"[False, True, True, True, False, True]","[""How many flights are there per round?"",""True or false: The hidden values will change each time I start a new round."",""How much does it cost to observe each hidden value?"",""How many hidden values am I allowed to observe in each round?"",""Which statement is TRUE?"",""True of false: The duration of the delay tells me how much more money I could have earned by planning and deciding better.""]","[""1"",""True"",""$0.10"",""As many or as few as I wish"",""My earnings for each round are equal to the value of one of the locations I visit (minus the cost of making observations), and I will actually be paid the earnings from one of the 8 rounds."",""True""]",21614,403828,survey-multi-choice,A1U8RH67FLZW87,30BUDKLTXDV8GFU6GJNIB10FNFM5E4,19
404,"[False, True, True, True, True, False]","[""How many flights are there per round?"",""True or false: The hidden values will change each time I start a new round."",""How much does it cost to observe each hidden value?"",""How many hidden values am I allowed to observe in each round?"",""Which statement is TRUE?"",""True of false: The duration of the delay tells me how much more money I could have earned by planning and deciding better.""]","[""1"",""True"",""$0.10"",""As many or as few as I wish"",""My earnings for each round are equal to the <i>sum</i> of the values of all locations I visit (minus the cost of making observations), and I will be paid the earnings from one of the 8 rounds."",""False""]",21518,432156,survey-multi-choice,A1U8RH67FLZW87,30BUDKLTXDV8GFU6GJNIB10FNFM5E4,19
406,"[False, True, True, True, True, True]","[""How many flights are there per round?"",""True or false: The hidden values will change each time I start a new round."",""How much does it cost to observe each hidden value?"",""How many hidden values am I allowed to observe in each round?"",""Which statement is TRUE?"",""True of false: The duration of the delay tells me how much more money I could have earned by planning and deciding better.""]","[""1"",""True"",""$0.10"",""As many or as few as I wish"",""My earnings for each round are equal to the <i>sum</i> of the values of all locations I visit (minus the cost of making observations), and I will be paid the earnings from one of the 8 rounds."",""True""]",21589,462588,survey-multi-choice,A1U8RH67FLZW87,30BUDKLTXDV8GFU6GJNIB10FNFM5E4,19
408,"[False, True, True, True, False, True]","[""How many flights are there per round?"",""True or false: The hidden values will change each time I start a new round."",""How much does it cost to observe each hidden value?"",""How many hidden values am I allowed to observe in each round?"",""Which statement is TRUE?"",""True of false: The duration of the delay tells me how much more money I could have earned by planning and deciding better.""]","[""1"",""True"",""$0.10"",""As many or as few as I wish"",""My earnings for each round are equal to the value of one of the locations I visit (minus the cost of making observations), and I will actually be paid the earnings from one of the 8 rounds."",""True""]",44012,586196,survey-multi-choice,A1U8RH67FLZW87,30BUDKLTXDV8GFU6GJNIB10FNFM5E4,19
410,"[False, True, True, True, False, True]","[""How many flights are there per round?"",""True or false: The hidden values will change each time I start a new round."",""How much does it cost to observe each hidden value?"",""How many hidden values am I allowed to observe in each round?"",""Which statement is TRUE?"",""True of false: The duration of the delay tells me how much more money I could have earned by planning and deciding better.""]","[""1"",""True"",""$0.10"",""As many or as few as I wish"",""My earnings for each round are equal to the value of one of the locations I visit (minus the cost of making observations), but these earnings aren't real money."",""True""]",18597,611174,survey-multi-choice,A1U8RH67FLZW87,30BUDKLTXDV8GFU6GJNIB10FNFM5E4,19
412,"[False, True, True, True, True, True]","[""How many flights are there per round?"",""True or false: The hidden values will change each time I start a new round."",""How much does it cost to observe each hidden value?"",""How many hidden values am I allowed to observe in each round?"",""Which statement is TRUE?"",""True of false: The duration of the delay tells me how much more money I could have earned by planning and deciding better.""]","[""1"",""True"",""$0.10"",""As many or as few as I wish"",""My earnings for each round are equal to the <i>sum</i> of the values of all locations I visit (minus the cost of making observations), and I will be paid the earnings from one of the 8 rounds."",""True""]",9831,627017,survey-multi-choice,A1U8RH67FLZW87,30BUDKLTXDV8GFU6GJNIB10FNFM5E4,19
414,"[False, True, True, True, False, True]","[""How many flights are there per round?"",""True or false: The hidden values will change each time I start a new round."",""How much does it cost to observe each hidden value?"",""How many hidden values am I allowed to observe in each round?"",""Which statement is TRUE?"",""True of false: The duration of the delay tells me how much more money I could have earned by planning and deciding better.""]","[""1"",""True"",""$0.10"",""As many or as few as I wish"",""My earnings for each round are equal to the <i>sum</i> of the values of all locations I visit (minus the cost of making observations), but these earnings aren't real money."",""True""]",14367,649240,survey-multi-choice,A1U8RH67FLZW87,30BUDKLTXDV8GFU6GJNIB10FNFM5E4,19
416,"[True, True, True, True, True, True]","[""How many flights are there per round?"",""True or false: The hidden values will change each time I start a new round."",""How much does it cost to observe each hidden value?"",""How many hidden values am I allowed to observe in each round?"",""Which statement is TRUE?"",""True of false: The duration of the delay tells me how much more money I could have earned by planning and deciding better.""]","[""3"",""True"",""$0.10"",""As many or as few as I wish"",""My earnings for each round are equal to the <i>sum</i> of the values of all locations I visit (minus the cost of making observations), and I will be paid the earnings from one of the 8 rounds."",""True""]",19437,705592,survey-multi-choice,A1U8RH67FLZW87,30BUDKLTXDV8GFU6GJNIB10FNFM5E4,19
427,"[False, True, True, True, True]","[""How many flights are there per round?"",""True or false: The hidden values will change each time I start a new round."",""How much does it cost to observe each hidden value?"",""How many hidden values am I allowed to observe in each round?"",""Which statement is TRUE?""]","[""4"",""True"",""$0.10"",""As many or as few as I wish"",""My earnings for each round are equal to the <i>sum</i> of the values of all locations I visit (minus the cost of making observations), and I will be paid the earnings from one of the 8 rounds.""]",103290,310767,survey-multi-choice,A1V1JNPU0KOA3X,3DEL4X4EL6LFO3V7MQI7ANJFYQ0XYK,20
429,"[True, True, True, True, True]","[""How many flights are there per round?"",""True or false: The hidden values will change each time I start a new round."",""How much does it cost to observe each hidden value?"",""How many hidden values am I allowed to observe in each round?"",""Which statement is TRUE?""]","[""3"",""True"",""$0.10"",""As many or as few as I wish"",""My earnings for each round are equal to the <i>sum</i> of the values of all locations I visit (minus the cost of making observations), and I will be paid the earnings from one of the 8 rounds.""]",42418,491213,survey-multi-choice,A1V1JNPU0KOA3X,3DEL4X4EL6LFO3V7MQI7ANJFYQ0XYK,20
440,"[False, True, True, True, False]","[""How many flights are there per round?"",""True or false: The hidden values will change each time I start a new round."",""How much does it cost to observe each hidden value?"",""How many hidden values am I allowed to observe in each round?"",""Which statement is TRUE?""]","[""1"",""True"",""$0.10"",""As many or as few as I wish"",""My earnings for each round are equal to the value of one of the locations I visit (minus the cost of making observations), and I will actually be paid the earnings from one of the 8 rounds.""]",33792,106798,survey-multi-choice,A1VW8Y7XCV3DRW,3LEIZ60CDJZPSXNEFWEC8R6ZXHE9Z5,21
442,"[False, True, True, True, True]","[""How many flights are there per round?"",""True or false: The hidden values will change each time I start a new round."",""How much does it cost to observe each hidden value?"",""How many hidden values am I allowed to observe in each round?"",""Which statement is TRUE?""]","[""2"",""True"",""$0.10"",""As many or as few as I wish"",""My earnings for each round are equal to the <i>sum</i> of the values of all locations I visit (minus the cost of making observations), and I will be paid the earnings from one of the 8 rounds.""]",33303,178439,survey-multi-choice,A1VW8Y7XCV3DRW,3LEIZ60CDJZPSXNEFWEC8R6ZXHE9Z5,21
444,"[False, True, True, True, False]","[""How many flights are there per round?"",""True or false: The hidden values will change each time I start a new round."",""How much does it cost to observe each hidden value?"",""How many hidden values am I allowed to observe in each round?"",""Which statement is TRUE?""]","[""2"",""True"",""$0.10"",""As many or as few as I wish"",""My earnings for each round are equal to the value of one of the locations I visit (minus the cost of making observations), and I will actually be paid the earnings from one of the 8 rounds.""]",14605,221913,survey-multi-choice,A1VW8Y7XCV3DRW,3LEIZ60CDJZPSXNEFWEC8R6ZXHE9Z5,21
446,"[False, False, True, True, False]","[""How many flights are there per round?"",""True or false: The hidden values will change each time I start a new round."",""How much does it cost to observe each hidden value?"",""How many hidden values am I allowed to observe in each round?"",""Which statement is TRUE?""]","[""2"",""False"",""$0.10"",""As many or as few as I wish"",""My earnings for each round are equal to the value of one of the locations I visit (minus the cost of making observations), and I will actually be paid the earnings from one of the 8 rounds.""]",17446,284973,survey-multi-choice,A1VW8Y7XCV3DRW,3LEIZ60CDJZPSXNEFWEC8R6ZXHE9Z5,21
448,"[False, True, True, True, False]","[""How many flights are there per round?"",""True or false: The hidden values will change each time I start a new round."",""How much does it cost to observe each hidden value?"",""How many hidden values am I allowed to observe in each round?"",""Which statement is TRUE?""]","[""1"",""True"",""$0.10"",""As many or as few as I wish"",""My earnings for each round are equal to the value of one of the locations I visit (minus the cost of making observations), and I will actually be paid the earnings from one of the 8 rounds.""]",17438,345245,survey-multi-choice,A1VW8Y7XCV3DRW,3LEIZ60CDJZPSXNEFWEC8R6ZXHE9Z5,21
450,"[False, True, True, True, True]","[""How many flights are there per round?"",""True or false: The hidden values will change each time I start a new round."",""How much does it cost to observe each hidden value?"",""How many hidden values am I allowed to observe in each round?"",""Which statement is TRUE?""]","[""2"",""True"",""$0.10"",""As many or as few as I wish"",""My earnings for each round are equal to the <i>sum</i> of the values of all locations I visit (minus the cost of making observations), and I will be paid the earnings from one of the 8 rounds.""]",24275,421271,survey-multi-choice,A1VW8Y7XCV3DRW,3LEIZ60CDJZPSXNEFWEC8R6ZXHE9Z5,21
452,"[False, True, True, True, True]","[""How many flights are there per round?"",""True or false: The hidden values will change each time I start a new round."",""How much does it cost to observe each hidden value?"",""How many hidden values am I allowed to observe in each round?"",""Which statement is TRUE?""]","[""1"",""True"",""$0.10"",""As many or as few as I wish"",""My earnings for each round are equal to the <i>sum</i> of the values of all locations I visit (minus the cost of making observations), and I will be paid the earnings from one of the 8 rounds.""]",16304,456533,survey-multi-choice,A1VW8Y7XCV3DRW,3LEIZ60CDJZPSXNEFWEC8R6ZXHE9Z5,21
454,"[False, True, True, True, True]","[""How many flights are there per round?"",""True or false: The hidden values will change each time I start a new round."",""How much does it cost to observe each hidden value?"",""How many hidden values am I allowed to observe in each round?"",""Which statement is TRUE?""]","[""1"",""True"",""$0.10"",""As many or as few as I wish"",""My earnings for each round are equal to the <i>sum</i> of the values of all locations I visit (minus the cost of making observations), and I will be paid the earnings from one of the 8 rounds.""]",33122,543167,survey-multi-choice,A1VW8Y7XCV3DRW,3LEIZ60CDJZPSXNEFWEC8R6ZXHE9Z5,21
456,"[False, True, True, True, False]","[""How many flights are there per round?"",""True or false: The hidden values will change each time I start a new round."",""How much does it cost to observe each hidden value?"",""How many hidden values am I allowed to observe in each round?"",""Which statement is TRUE?""]","[""1"",""True"",""$0.10"",""As many or as few as I wish"",""My earnings for each round are equal to the <i>sum</i> of the values of all locations I visit (minus the cost of making observations), but these earnings aren't real money.""]",22985,610443,survey-multi-choice,A1VW8Y7XCV3DRW,3LEIZ60CDJZPSXNEFWEC8R6ZXHE9Z5,21
458,"[False, True, True, True, True]","[""How many flights are there per round?"",""True or false: The hidden values will change each time I start a new round."",""How much does it cost to observe each hidden value?"",""How many hidden values am I allowed to observe in each round?"",""Which statement is TRUE?""]","[""1"",""True"",""$0.10"",""As many or as few as I wish"",""My earnings for each round are equal to the <i>sum</i> of the values of all locations I visit (minus the cost of making observations), and I will be paid the earnings from one of the 8 rounds.""]",20572,643090,survey-multi-choice,A1VW8Y7XCV3DRW,3LEIZ60CDJZPSXNEFWEC8R6ZXHE9Z5,21
460,"[False, True, True, True, False]","[""How many flights are there per round?"",""True or false: The hidden values will change each time I start a new round."",""How much does it cost to observe each hidden value?"",""How many hidden values am I allowed to observe in each round?"",""Which statement is TRUE?""]","[""1"",""True"",""$0.10"",""As many or as few as I wish"",""My earnings for each round are equal to the <i>sum</i> of the values of all locations I visit (minus the cost of making observations), but these earnings aren't real money.""]",15179,669745,survey-multi-choice,A1VW8Y7XCV3DRW,3LEIZ60CDJZPSXNEFWEC8R6ZXHE9Z5,21
462,"[False, True, True, True, True]","[""How many flights are there per round?"",""True or false: The hidden values will change each time I start a new round."",""How much does it cost to observe each hidden value?"",""How many hidden values am I allowed to observe in each round?"",""Which statement is TRUE?""]","[""1"",""True"",""$0.10"",""As many or as few as I wish"",""My earnings for each round are equal to the <i>sum</i> of the values of all locations I visit (minus the cost of making observations), and I will be paid the earnings from one of the 8 rounds.""]",23811,743718,survey-multi-choice,A1VW8Y7XCV3DRW,3LEIZ60CDJZPSXNEFWEC8R6ZXHE9Z5,21
